Iterazione,AccelX_T1_Mean,AccelX_T1_Variance,AccelX_T1_StdDev,AccelX_T1_Max,AccelX_T1_Min,AccelX_T1_AbsDerivative,AccelY_T1_Mean,AccelY_T1_Variance,AccelY_T1_StdDev,AccelY_T1_Max,AccelY_T1_Min,AccelY_T1_AbsDerivative,AccelZ_T1_Mean,AccelZ_T1_Variance,AccelZ_T1_StdDev,AccelZ_T1_Max,AccelZ_T1_Min,AccelZ_T1_AbsDerivative,AccelX_T2_Mean,AccelX_T2_Variance,AccelX_T2_StdDev,AccelX_T2_Max,AccelX_T2_Min,AccelX_T2_AbsDerivative,AccelY_T2_Mean,AccelY_T2_Variance,AccelY_T2_StdDev,AccelY_T2_Max,AccelY_T2_Min,AccelY_T2_AbsDerivative,AccelZ_T2_Mean,AccelZ_T2_Variance,AccelZ_T2_StdDev,AccelZ_T2_Max,AccelZ_T2_Min,AccelZ_T2_AbsDerivative,AccelT1_SMA,AccelT2_SMA,Label
0,1943.413,308.042,17.551,2005,1845,28,2269.353,75.468,8.687,2300,2247,16,2739.973,78.479,8.859,2769,2719,0,1940.52,1105.93,33.256,1997,1792,30,1406.727,578.732,24.057,1453,1326,87,1107.873,728.951,26.999,1207,1058,63,6952.74,4455.12,sitting
1,1912.093,126885.245,356.21,2477,1010,617,1933.36,142106.297,376.97,2308,1112,1125,2623.327,66604.3,258.078,3039,1931,287,1952.047,47691.111,218.383,2395,1207,232,1309.793,34353.764,185.348,1923,542,80,1286.313,40883.095,202.196,1888,987,512,6468.78,4548.153333333334,sitting
2,1485.627,58523.807,241.917,2314,999,1315,1219.907,24057.111,155.104,1749,868,330,2106.52,102177.196,319.652,2933,1652,532,1858.567,32581.899,180.505,2238,1207,171,1359.72,58739.762,242.363,1923,542,123,1317.167,54915.606,234.341,1888,703,810,4812.053333333333,4535.453333333333,sitting
3,1387.373,52377.181,228.861,1753,904,64,1621.293,63086.781,251.171,1955,868,675,2394.393,83486.185,288.94,2790,1652,510,1907.947,6610.61,81.306,2090,1732,160,1290.86,27101.454,164.625,1826,865,187,1484.013,213374.093,461.924,2012,668,896,5403.06,4682.82,sitting
4,1499.733,1053.982,32.465,1632,1454,148,1818.553,444.474,21.083,1884,1768,43,2616.033,351.392,18.745,2673,2575,14,1924.313,525.255,22.918,1981,1852,34,1266.96,252.718,15.897,1309,1224,32,1988.673,717.793,26.792,2040,1903,77,5934.32,5179.946666666667,sitting
5,1426.093,5714.018,75.591,1605,1200,68,1817.053,1695.144,41.172,1895,1712,31,2575.767,2947.339,54.289,2684,2349,120,1951.22,2561.958,50.616,2128,1786,35,1237.62,2760.102,52.537,1325,1090,174,1802.747,44127.069,210.064,2046,1440,437,5818.913333333333,4991.586666666667,sitting
6,1497.033,7927.259,89.035,1691,1275,283,1813.76,1475.022,38.406,1891,1712,24,2612.947,3004.837,54.816,2729,2453,148,1933.867,2971.596,54.512,2128,1786,93,1234.5,2465.117,49.65,1325,1074,85,1806.84,35032.881,187.171,2025,1440,536,5923.74,4975.206666666667,sitting
7,1502.207,564.284,23.755,1576,1452,49,1817.893,300.189,17.326,1890,1775,63,2619.02,186.566,13.659,2658,2588,14,1925.227,241.975,15.556,1970,1884,34,1264.907,418.511,20.458,1326,1166,17,1999.14,337.707,18.377,2052,1955,54,5939.12,5189.2733333333335,sitting
8,1487.98,79.74,8.93,1512,1452,13,1822.773,51.122,7.15,1844,1804,7,2613.087,49.879,7.063,2630,2593,3,1925.813,119.018,10.91,1952,1892,7,1265.867,185.169,13.608,1297,1227,12,2013.833,190.726,13.81,2045,1972,34,5923.84,5205.513333333333,sitting
9,1492.687,145.428,12.059,1524,1456,14,1815.82,143.681,11.987,1842,1787,23,2612.9,100.277,10.014,2643,2591,10,1925.573,184.618,13.587,1969,1891,27,1269.467,244.182,15.626,1322,1229,7,2012.613,231.624,15.219,2045,1971,4,5921.406666666667,5207.653333333334,sitting
10,1475.353,693.495,26.334,1567,1369,65,1839.9,1825.33,42.724,1975,1792,93,2613.053,430.464,20.748,2686,2555,24,1920.78,292.558,17.104,1954,1848,29,1267.68,490.418,22.145,1331,1197,40,1989.64,1379.377,37.14,2040,1874,124,5928.306666666666,5178.1,sitting
11,1398.14,12404.72,111.376,1704,1168,243,1639.113,100137.994,316.446,1975,977,716,2448.02,38382.673,195.915,2686,1979,486,1943.72,839.348,28.972,2032,1873,54,1270.453,7273.114,85.283,1519,1042,310,1431.64,142894.684,378.014,1976,863,775,5485.2733333333335,4645.8133333333335,sitting
12,1607.193,13270.823,115.199,1758,1208,275,1202.587,7425.616,86.172,1348,977,138,2033.773,5313.229,72.892,2236,1910,183,1973.513,2787.516,52.797,2147,1829,87,1328.093,13754.591,117.28,1519,981,130,1365.42,37648.617,194.033,1640,955,567,4843.553333333333,4667.026666666667,sitting
13,1634.567,402.379,20.059,1680,1577,64,1172.447,876.22,29.601,1279,1108,115,1987.973,1100.226,33.17,2052,1900,106,1906.16,2178.774,46.677,2016,1770,66,1223.68,1546.884,39.33,1386,1150,54,1529.04,1759.145,41.942,1622,1381,192,4794.986666666667,4658.88,sitting
14,1447.053,73211.744,270.577,2146,842,260,1327.54,35327.262,187.955,1743,661,410,2056.907,55896.565,236.425,2906,1698,589,1938.147,11646.258,107.918,2154,1592,91,1385.6,23266.547,152.534,1808,1130,101,1185.04,81602.385,285.661,1575,520,25,4831.5,4508.786666666667,sitting
15,1377.84,72546.188,269.344,1879,598,624,2130.393,271001.479,520.578,2917,1394,1468,2336.707,64632.234,254.229,2727,1904,6,1951.227,1697.975,41.206,2060,1824,106,1241.653,5590.946,74.773,1448,1073,137,1711.133,81389.729,285.289,1980,800,949,5844.94,4904.013333333333,sitting
16,1560.82,45959.868,214.383,2194,926,44,2606.98,184838.62,429.929,3157,1455,858,2202.04,229298.185,478.851,3796,1591,904,1945.947,374.09,19.341,2000,1896,38,1219.427,634.231,25.184,1287,1159,11,1834.66,1354.411,36.802,1948,1779,58,6369.84,5000.033333333334,sitting
17,1459.92,8604.074,92.758,1754,926,43,1769.32,7950.271,89.164,2182,1455,429,2661.727,61907.345,248.812,3796,2337,75,1942.64,228.99,15.132,1969,1894,17,1242.393,740.252,27.208,1349,1154,20,1927.74,878.472,29.639,1983,1843,85,5890.966666666666,5112.7733333333335,sitting
18,1447.52,87.05,9.33,1474,1422,13,1756.94,60.47,7.776,1774,1735,19,2568.96,54.652,7.393,2588,2548,17,1946.307,162.239,12.737,1982,1910,13,1248.653,134.546,11.599,1273,1211,6,1951.347,196.44,14.016,1983,1902,23,5773.42,5146.306666666666,sitting
19,1445.913,116.732,10.804,1484,1425,34,1765.18,190.508,13.802,1812,1737,53,2571.087,121.652,11.03,2613,2547,15,1943.507,196.197,14.007,1976,1904,21,1253.1,341.557,18.481,1305,1195,33,1961.58,232.324,15.242,2007,1916,63,5782.18,5158.1866666666665,sitting
20,1458.067,163.902,12.802,1489,1425,5,1773.42,264.684,16.269,1817,1737,28,2581.673,134.153,11.582,2613,2555,2,1939.907,192.951,13.891,1976,1904,15,1258.12,422.412,20.553,1313,1195,9,1984.3,361.877,19.023,2024,1916,60,5813.16,5182.326666666667,sitting
21,1471.12,1769.679,42.068,1634,1365,28,1801.733,2480.329,49.803,1946,1742,95,2596.273,1383.359,37.194,2777,2519,84,1931.48,779.223,27.915,2035,1821,30,1258.627,1015.674,31.87,1375,1193,22,1939.473,8597.143,92.721,2040,1661,333,5869.126666666667,5129.58,sitting
22,1373.267,25910.649,160.968,1774,1025,211,1582.613,113647.837,337.117,1946,715,557,2358.007,54508.82,233.471,2691,1851,673,1939.413,2591.042,50.902,2054,1823,14,1326.48,9684.623,98.41,1526,1177,238,1269.947,119831.41,346.167,1862,777,505,5313.886666666666,4535.84,sitting
23,1630.307,10981.453,104.792,1774,1237,361,1195.033,23626.579,153.709,1439,715,68,2005.753,3051.346,55.239,2143,1851,141,1982.027,6356.813,79.73,2139,1769,172,1314.227,13247.709,115.099,1526,1050,129,1399.667,22786.196,150.951,1602,896,589,4831.093333333333,4695.92,sitting
24,1633.22,1648.118,40.597,1717,1532,60,1166.647,2266.775,47.611,1281,1027,27,1986.967,822.472,28.679,2046,1916,58,1911.02,2252.326,47.459,2018,1769,43,1221.873,2827.284,53.172,1320,1054,47,1517.807,1443.409,37.992,1602,1415,47,4786.833333333333,4650.7,sitting
25,1444.293,65203.447,255.35,1787,960,450,1317.007,28873.233,169.921,1755,1015,538,2071.333,33717.742,183.624,2486,1844,421,1956.547,3953.608,62.878,2102,1780,59,1451.453,26847.501,163.852,1825,1168,214,1111.687,104177.015,322.765,1587,549,367,4832.633333333333,4519.6866666666665,sitting
26,1505.093,48161.111,219.456,1736,1007,560,1711.967,10519.152,102.563,1863,1378,372,2552.68,21748.898,147.475,2796,2174,436,1946.54,3070.288,55.41,2104,1815,79,1303.513,14848.97,121.856,1635,1132,313,1524.447,190342.314,436.282,1983,566,1371,5769.74,4774.5,sitting
27,1525.34,2275.504,47.702,1703,1462,219,1793.8,308.613,17.567,1820,1735,63,2618.76,415.556,20.385,2679,2571,40,1907.02,354.086,18.817,1949,1838,26,1261.467,452.782,21.279,1331,1197,55,1970.18,620.094,24.902,2016,1886,55,5937.9,5138.666666666667,sitting
28,1485.893,66.029,8.126,1514,1462,13,1803.92,47.834,6.916,1820,1790,1,2604.76,57.076,7.555,2627,2585,8,1911.713,124.764,11.17,1939,1880,10,1263.693,243.026,15.589,1302,1196,1,1985.333,162.636,12.753,2012,1944,10,5894.573333333334,5160.74,sitting
29,1484.873,54.737,7.398,1504,1465,2,1801.327,40.38,6.355,1819,1784,2,2603.287,66.244,8.139,2627,2583,4,1913.633,144.952,12.04,1947,1876,13,1266.06,149.776,12.238,1302,1229,12,1994.687,151.588,12.312,2029,1959,11,5889.486666666667,5174.38,sitting
30,1486.207,54.311,7.37,1505,1469,8,1798.96,46.265,6.802,1819,1777,0,2603.327,47.113,6.864,2620,2583,5,1916.7,167.357,12.937,1951,1872,14,1266.347,162.186,12.735,1294,1221,10,1997.16,122.081,11.049,2029,1958,12,5888.493333333333,5180.206666666667,sitting
31,1471.18,668.014,25.846,1517,1402,76,1809.553,226.434,15.048,1847,1784,27,2600.767,118.886,10.903,2621,2568,7,1917.72,198.588,14.092,1951,1866,19,1257.34,469.571,21.67,1312,1193,63,1962.06,2331.23,48.283,2024,1834,149,5881.5,5137.12,sitting
32,1384.533,19098.156,138.196,1765,1099,229,1601.287,127799.151,357.49,2067,751,749,2396.58,59829.484,244.601,2855,1923,623,1937.767,761.686,27.599,2073,1874,147,1266.847,8550.503,92.469,1516,1047,236,1430.887,141742.567,376.487,1911,839,650,5382.4,4635.5,sitting
33,1618.8,12665.533,112.541,1808,1302,304,1193.58,24586.79,156.802,1449,751,147,2005.067,7812.142,88.386,2163,1814,145,1970.187,4368.498,66.095,2119,1791,173,1330.193,15735.209,125.44,1531,981,116,1361.04,30474.785,174.57,1607,931,553,4817.446666666667,4661.42,sitting
34,1613.447,15646.78,125.087,1767,1032,380,1203.92,14721.514,121.332,1593,719,144,1955.34,33287.944,182.45,3038,1602,83,1945.06,9663.243,98.302,2111,1738,1,1352.773,24292.122,155.859,1804,1128,184,1335.467,32812.769,181.143,1537,732,772,4772.706666666667,4633.3,sitting
35,1253.493,61070.823,247.125,1649,637,676,1556.453,76231.914,276.101,2251,719,1123,2316.467,111831.809,334.413,3038,1602,681,1955.3,4762.877,69.014,2111,1761,94,1367.007,24801.06,157.484,1804,1099,284,1285.66,195481.224,442.133,1934,487,689,5126.413333333333,4607.966666666666,sitting
36,1485.633,160014.059,400.018,2566,637,369,2603.587,154084.469,392.536,3120,1669,1123,2166.54,110655.702,332.65,2803,1420,361,1937.293,1356.807,36.835,2018,1822,3,1245.38,1560.636,39.505,1349,1123,52,1909.433,2059.726,45.384,1975,1742,26,6255.76,5092.106666666667,sitting
37,1685.247,145237.706,381.101,2378,373,832,2276.267,263664.409,513.483,2984,1343,1224,2481.553,126512.26,355.686,4016,2077,130,1944.513,862.316,29.365,2044,1876,4,1243.087,851.679,29.184,1355,1151,47,1938.88,714.012,26.721,2019,1868,21,6443.066666666667,5126.48,sitting
38,1582.447,52669.327,229.498,2331,1269,394,1634.847,9570.81,97.831,1844,1351,34,2553.72,9120.188,95.5,2794,2246,9,1938.433,434.806,20.852,1997,1879,19,1248.773,675.335,25.987,1355,1176,113,1954.92,380.607,19.509,2016,1881,30,5771.013333333333,5142.126666666667,sitting
39,1695.667,13427.289,115.876,2229,1562,526,1496.44,4120.193,64.189,1739,1348,120,2507.52,2834.956,53.244,2727,2383,224,1931.78,315.932,17.774,1997,1880,38,1249.767,361.179,19.005,1312,1188,23,1953.8,214.373,14.641,1988,1907,19,5699.626666666667,5135.346666666666,sitting
40,1637.273,142.679,11.945,1663,1607,28,1478.707,65.394,8.087,1500,1457,7,2477.307,88.333,9.399,2503,2451,9,1929.447,124.66,11.165,1959,1899,8,1250.98,170.126,13.043,1286,1215,16,1959.66,148.624,12.191,1987,1928,17,5593.286666666667,5140.086666666667,sitting
41,1634.927,1771.961,42.095,1889,1592,102,1467.76,840.449,28.99,1547,1307,65,2485.36,3427.564,58.545,2759,2308,123,1929.533,162.596,12.751,1971,1899,2,1252.127,172.071,13.118,1286,1210,3,1959.767,153.072,12.372,1988,1919,4,5588.046666666667,5141.426666666666,sitting
42,1510.66,19426.811,139.38,1889,1184,264,1705.38,36244.062,190.379,2003,1307,375,2556.627,20019.127,141.489,2993,2214,27,1923.853,895.138,29.919,1992,1804,18,1255.22,509.585,22.574,1311,1189,8,1948.153,1194.196,34.557,2012,1850,97,5772.666666666667,5127.2266666666665,sitting
43,1371.567,20991.646,144.885,1695,972,148,1561.6,120377.627,346.955,2003,594,560,2333.08,70388.58,265.308,2700,1762,938,1909.047,3670.151,60.582,2073,1763,43,1260.84,11309.974,106.348,1531,1007,88,1450.447,117769.567,343.176,1949,908,630,5266.246666666667,4620.333333333333,sitting
44,1604.613,8294.824,91.076,1748,1324,115,1184.547,28318.194,168.28,1476,594,34,1957.72,5818.762,76.281,2082,1762,75,1949.273,4158.505,64.486,2094,1788,53,1308.453,14255.368,119.396,1531,995,153,1427.773,18111.175,134.578,1620,1146,398,4746.88,4685.5,sitting
45,1559.213,14182.928,119.092,1780,1209,278,1194.02,4669.58,68.334,1390,1052,50,1891.687,7425.642,86.172,2041,1703,76,1942.167,8081.619,89.898,2129,1745,109,1402.86,36491.947,191.029,1807,1127,577,1274.373,62895.967,250.791,1616,846,692,4644.92,4619.4,sitting
46,1259.62,10485.009,102.396,1492,1060,18,1524.973,43728.253,209.113,1866,1135,489,2203.173,65959.183,256.825,2537,1728,643,1968.813,3120.338,55.86,2129,1797,52,1542.147,50258.418,224.184,1881,1197,379,1031.547,108304.381,329.096,1758,656,819,4987.766666666666,4542.506666666667,sitting
47,1584.687,39439.908,198.595,2016,1209,347,1742.867,8329.409,91.266,1929,1606,140,2602.72,10648.788,103.193,2853,2341,187,1930.393,1476.532,38.426,2039,1829,52,1238.04,627.198,25.044,1315,1159,15,1833.78,21370.225,146.186,1973,1365,555,5930.2733333333335,5002.213333333333,sitting
48,1536.287,1848.524,42.994,1744,1446,211,1777.66,166.038,12.886,1819,1751,28,2619.06,536.923,23.172,2725,2573,106,1912.26,207.792,14.415,1942,1867,22,1250.747,201.869,14.208,1280,1194,19,1954.68,313.271,17.699,1998,1912,28,5933.006666666667,5117.6866666666665,sitting
49,1520.58,88.004,9.381,1546,1496,23,1773.24,76.249,8.732,1796,1745,14,2609.773,56.002,7.483,2626,2587,7,1918.333,235.729,15.353,1971,1884,42,1256.227,352.429,18.773,1318,1181,30,1975.76,571.609,23.908,2069,1885,72,5903.593333333333,5150.32,sitting
50,1521.56,141.9,11.912,1546,1492,18,1770.367,74.726,8.644,1796,1745,6,2608.653,185.2,13.609,2639,2568,4,1932.627,255.834,15.995,1971,1890,10,1263.907,846.631,29.097,1330,1181,19,1996.847,1702.69,41.264,2069,1885,14,5900.58,5193.38,sitting
51,1522.073,84.721,9.204,1545,1498,18,1766.307,58.999,7.681,1783,1747,0,2609.227,94.082,9.7,2639,2568,5,1923.053,191.13,13.825,1969,1882,21,1264.727,237.439,15.409,1317,1225,28,2000.16,509.761,22.578,2066,1926,58,5897.606666666667,5187.94,sitting
52,1532.66,4619.318,67.966,1776,1036,76,1756.833,686.592,26.203,1855,1659,66,2607.773,4222.189,64.978,2773,2095,92,1928.913,377.959,19.441,1981,1867,16,1263.64,419.804,20.489,1317,1200,4,1990.533,1122.596,33.505,2128,1842,66,5897.266666666666,5183.086666666667,sitting
53,1533.753,5052.772,71.083,1776,1036,52,1749.5,682.637,26.127,1855,1659,4,2607.38,4775.969,69.108,2773,2095,10,1936.38,222.676,14.922,1981,1867,28,1263.38,274.689,16.574,1317,1225,7,1998.753,220.092,14.835,2039,1965,11,5890.633333333333,5198.513333333333,sitting
54,1445.78,13305.558,115.35,1624,1062,460,1761.393,16504.119,128.468,1973,1336,418,2557.107,11556.002,107.499,2727,2078,511,1925.513,663.45,25.758,2026,1859,7,1233.153,5689.943,75.432,1346,903,38,1731.407,125615.428,354.423,2044,819,1147,5764.28,4890.073333333334,sitting
55,1504.293,37816.127,194.464,1786,1062,415,1286.3,42877.05,207.068,1709,819,580,2070.353,32633.322,180.647,2521,1831,379,1978.307,2320.999,48.177,2121,1886,20,1299.573,22160.885,148.865,1594,903,63,1276.293,45291.154,212.817,1583,819,177,4860.946666666667,4554.173333333333,sitting
56,1646.04,2436.132,49.357,1786,1580,17,1171.18,1941.894,44.067,1257,1055,37,2010.213,2266.341,47.606,2107,1929,67,1901.3,7233.463,85.05,2077,1736,40,1228.62,2777.889,52.706,1325,1054,24,1514.213,1405.248,37.487,1597,1414,37,4827.433333333333,4644.133333333333,sitting
57,1665.567,2188.459,46.781,1811,1590,17,1175.593,2064.668,45.439,1248,1058,83,2019.853,2009.578,44.828,2124,1946,29,1911.42,6456.177,80.35,2077,1775,32,1218.733,3519.369,59.324,1366,1012,35,1531.367,1608.752,40.109,1667,1445,11,4861.013333333333,4661.52,sitting
58,1651.593,834.988,28.896,1735,1593,12,1185.853,6769.245,82.275,1450,1079,276,1939.24,1452.329,38.109,2003,1813,136,1869.167,3327.779,57.687,2011,1714,67,1269.473,14922.476,122.158,1740,1038,252,1486.927,10622.535,103.066,1639,1212,228,4776.6866666666665,4625.566666666667,sitting
59,1366.513,49927.45,223.445,1735,812,202,1445.4,48254.067,219.668,1849,987,646,2164.033,50944.526,225.709,2583,1806,494,1929.413,16749.149,129.419,2361,1566,41,1347.133,27641.582,166.258,1740,972,173,1245.36,80354.084,283.468,1938,695,27,4975.946666666667,4521.906666666667,sitting
60,1170.54,18671.248,136.643,1479,814,216,1719.207,15280.564,123.615,1947,1443,177,2283.92,27737.154,166.545,2583,1973,167,1896.04,2877.518,53.643,2033,1780,9,1219.687,12532.642,111.949,1495,953,90,1570.853,27518.405,165.887,1938,1191,83,5173.666666666667,4686.58,sitting
61,1513.067,39967.142,199.918,1849,1010,384,1666.907,11774.765,108.512,1947,1486,50,2534.067,21364.662,146.167,3101,2256,178,1892.0,2211.84,47.03,2038,1803,76,1210.12,6282.812,79.264,1382,953,347,1751.847,14608.25,120.865,2133,1467,426,5714.04,4853.966666666666,sitting
62,1529.193,438.849,20.949,1587,1486,65,1633.147,352.712,18.781,1676,1574,38,2551.767,426.272,20.646,2629,2507,29,1921.273,819.572,28.628,2038,1803,43,1234.353,2215.268,47.067,1382,1069,181,1907.02,4153.873,64.451,2133,1577,126,5714.106666666667,5062.6466666666665,sitting
63,1517.533,145.422,12.059,1542,1481,4,1641.993,76.98,8.774,1664,1620,35,2546.807,98.676,9.934,2572,2515,4,1916.573,207.778,14.415,1954,1858,40,1238.507,672.943,25.941,1331,1170,54,1914.54,1479.835,38.469,2027,1752,76,5706.333333333333,5069.62,sitting
64,1489.473,708.183,26.612,1531,1424,39,1673.587,898.362,29.973,1736,1627,80,2552.387,656.49,25.622,2611,2500,21,1904.467,461.396,21.48,1955,1830,36,1217.387,1878.89,43.346,1325,1108,9,1807.507,10953.93,104.661,1987,1557,268,5715.446666666667,4929.36,sitting
65,1485.42,1285.27,35.851,1568,1424,59,1694.12,512.506,22.639,1751,1638,57,2560.627,753.874,27.457,2630,2508,56,1911.507,515.45,22.704,1965,1830,28,1204.393,1678.879,40.974,1282,1112,93,1711.72,4831.042,69.506,1873,1496,53,5740.166666666667,4827.62,sitting
66,1555.907,652.085,25.536,1602,1469,51,1643.88,440.612,20.991,1694,1596,30,2567.227,204.882,14.314,2594,2526,22,1908.28,450.495,21.225,1961,1862,13,1221.187,1055.338,32.486,1317,1131,12,1813.813,5435.938,73.729,2001,1627,144,5767.013333333333,4943.28,sitting
67,1515.96,1131.252,33.634,1596,1458,113,1673.273,753.279,27.446,1726,1611,95,2564.807,195.356,13.977,2593,2521,28,1895.9,1078.637,32.843,1997,1814,61,1227.04,750.545,27.396,1325,1136,69,1849.807,811.996,28.496,1955,1777,32,5754.04,4972.746666666667,sitting
68,1492.787,820.514,28.645,1605,1425,5,1691.553,604.9,24.595,1754,1644,41,2563.24,161.489,12.708,2596,2526,11,1891.273,2360.852,48.589,2025,1691,55,1223.107,489.029,22.114,1297,1129,40,1834.707,1658.007,40.719,2010,1615,27,5747.58,4949.086666666667,sitting
69,1496.74,1196.899,34.596,1614,1433,52,1706.813,7048.965,83.958,1953,1600,272,2564.28,1251.402,35.375,2677,2502,70,1893.48,1571.796,39.646,2019,1691,34,1229.067,1337.089,36.566,1335,1151,42,1816.98,6611.246,81.31,2090,1540,2,5767.833333333333,4939.526666666667,sitting
70,1473.513,30161.703,173.671,1745,1048,216,1462.62,118596.622,344.379,1953,642,339,2248.793,76275.311,276.18,2677,1850,516,1957.28,5799.948,76.157,2145,1707,219,1308.673,38335.607,195.795,1839,817,249,1351.793,110748.311,332.789,1919,531,408,5184.926666666666,4617.746666666667,sitting
71,1631.607,1751.265,41.848,1728,1511,17,1188.213,9761.114,98.798,1543,942,403,1988.073,2140.455,46.265,2118,1891,145,1921.22,12232.465,110.6,2145,1677,128,1254.553,9940.22,99.701,1484,993,302,1434.06,6882.03,82.958,1593,1083,305,4807.893333333333,4609.833333333333,sitting
72,1594.08,22995.714,151.643,1948,1122,285,1214.613,5524.77,74.329,1356,1072,15,1948.04,12701.398,112.7,2191,1694,111,1921.42,6241.79,79.005,2070,1694,8,1347.513,26464.276,162.678,1768,1067,145,1345.573,24067.138,155.136,1549,830,647,4756.733333333334,4614.506666666667,sitting
73,1327.353,29378.202,171.401,1672,975,84,1503.307,36111.013,190.029,1786,1113,455,2254.407,71461.295,267.322,2658,1694,838,1894.487,2012.503,44.861,2009,1694,105,1470.173,39049.81,197.61,1768,1168,326,1153.507,166832.663,408.452,1893,548,676,5085.066666666667,4518.166666666667,sitting
74,1576.067,3481.489,59.004,1756,1424,145,1666.0,3116.573,55.826,1813,1567,81,2579.56,1805.566,42.492,2720,2473,81,1907.54,697.128,26.403,1977,1826,38,1242.827,619.45,24.889,1295,1171,29,1888.72,5199.828,72.11,1992,1624,298,5821.626666666667,5039.086666666667,sitting
75,1611.313,392.548,19.813,1651,1567,16,1630.98,293.02,17.118,1679,1594,17,2580.547,134.568,11.6,2611,2550,13,1905.567,344.672,18.565,1949,1859,15,1245.313,259.868,16.12,1286,1177,34,1936.94,428.563,20.702,1997,1888,15,5822.84,5087.82,sitting
76,1602.347,342.96,18.519,1643,1564,43,1644.967,145.792,12.074,1683,1608,31,2585.353,193.615,13.915,2620,2551,9,1897.447,308.807,17.573,1936,1846,30,1244.733,446.076,21.121,1299,1198,8,1938.68,451.658,21.252,2017,1879,16,5832.666666666667,5080.86,sitting
77,1613.887,193.314,13.904,1643,1580,40,1629.16,134.534,11.599,1661,1603,40,2580.233,115.192,10.733,2607,2551,3,1890.393,265.532,16.295,1928,1839,48,1249.62,328.956,18.137,1300,1210,36,1949.353,357.655,18.912,1996,1893,2,5823.28,5089.366666666667,sitting
78,1608.713,380.191,19.498,1649,1520,106,1632.847,260.743,16.148,1676,1591,12,2580.453,123.661,11.12,2609,2552,4,1889.913,664.866,25.785,1952,1832,4,1247.5,743.943,27.275,1342,1134,99,1945.767,636.139,25.222,1999,1854,1,5822.013333333333,5083.18,sitting
79,1585.373,3015.474,54.913,1748,1438,85,1676.86,3996.254,63.216,1857,1578,110,2586.813,1486.325,38.553,2708,2524,41,1902.647,900.655,30.011,1987,1837,1,1245.92,1810.007,42.544,1361,1134,42,1880.667,15946.756,126.28,2038,1491,431,5849.046666666667,5029.233333333334,sitting
80,1502.393,20287.919,142.436,1715,1148,137,1387.073,93718.441,306.135,1838,627,472,2207.547,74388.434,272.742,2708,1770,471,1942.147,5525.698,74.335,2168,1671,111,1309.727,26969.665,164.224,1693,979,14,1310.18,68656.108,262.023,1807,835,307,5097.013333333333,4562.053333333333,sitting
81,1642.78,2549.158,50.489,1757,1523,101,1203.32,7233.444,85.05,1427,1009,217,2015.607,5495.079,74.129,2150,1854,152,1906.62,8401.529,91.66,2106,1697,278,1242.22,7961.598,89.228,1500,1019,159,1503.86,8433.68,91.835,1684,1138,242,4861.706666666667,4652.7,sitting
82,1636.773,5678.602,75.356,2027,1460,52,1203.607,12450.439,111.582,1432,1003,65,1951.133,5863.889,76.576,2175,1818,18,1901.94,7755.39,88.065,2161,1683,260,1313.927,32005.801,178.902,1935,1019,605,1404.8,15216.12,123.354,1608,1081,389,4791.513333333333,4620.666666666667,sitting
83,1374.593,59159.361,243.227,2027,875,20,1475.467,57995.796,240.823,1921,931,293,2244.88,55891.959,236.415,2631,1823,728,1913.113,5773.7,75.985,2161,1772,261,1486.347,40890.613,202.214,1935,1174,49,1097.253,130076.496,360.661,1774,451,454,5094.94,4496.713333333333,sitting
84,1555.2,4868.773,69.777,1692,1307,119,1668.887,2723.42,52.186,1814,1589,4,2570.853,2618.472,51.171,2767,2438,144,1914.333,581.529,24.115,1963,1838,76,1218.133,566.556,23.802,1297,1169,34,1702.1,6356.677,79.729,1793,1418,326,5794.94,4834.566666666667,sitting
85,1382.373,45596.127,213.532,1705,747,160,2232.753,335055.239,578.84,3106,1416,1360,2188.52,145915.596,381.989,2685,1517,859,1913.42,276.857,16.639,1952,1851,14,1208.38,170.302,13.05,1255,1168,12,1752.027,608.239,24.663,1809,1698,61,5803.6466666666665,4873.826666666667,sitting
86,1404.62,43384.236,208.289,2034,677,247,2416.74,273895.352,523.35,3106,1377,969,2128.62,207976.182,456.044,3338,1517,682,1919.253,192.296,13.867,1958,1874,5,1215.38,260.449,16.138,1276,1176,28,1797.793,465.311,21.571,1868,1752,64,5949.98,4932.426666666666,sitting
87,1472.84,5119.961,71.554,1707,1233,221,1693.347,3584.16,59.868,1821,1377,276,2573.52,13965.903,118.177,3338,2398,742,1911.367,243.352,15.6,1945,1873,17,1221.16,291.921,17.086,1276,1172,28,1834.02,354.233,18.821,1883,1779,44,5739.706666666667,4966.546666666667,sitting
88,1473.153,4400.303,66.335,1850,1298,22,1708.293,1105.567,33.25,1835,1559,4,2559.08,2378.967,48.775,2833,2437,24,1909.127,157.137,12.535,1946,1872,12,1223.62,242.316,15.567,1272,1171,17,1838.427,248.285,15.757,1879,1797,22,5740.526666666667,4971.173333333333,sitting
89,1447.233,3362.432,57.986,1561,1238,225,1728.747,3916.616,62.583,1910,1551,157,2546.713,2884.951,53.712,2659,2251,320,1913.993,1318.26,36.308,2131,1844,139,1226.867,705.156,26.555,1285,1099,16,1747.933,27528.289,165.917,1879,1092,727,5722.693333333334,4888.793333333333,sitting
90,1498.293,48139.474,219.407,1808,1070,265,1336.207,58991.737,242.882,1705,733,474,2143.587,39302.949,198.25,2595,1916,540,1996.8,5768.853,75.953,2139,1695,42,1298.533,16451.942,128.265,1569,927,136,1289.9,40520.597,201.297,1673,814,239,4978.086666666667,4585.233333333334,sitting
91,1666.82,11072.334,105.225,2089,1546,181,1171.993,3322.54,57.641,1408,1062,180,2017.187,4656.058,68.235,2184,1904,148,1922.727,9841.532,99.204,2108,1726,93,1244.04,4277.305,65.401,1396,1041,224,1464.44,1692.34,41.138,1559,1359,82,4856.0,4631.206666666667,sitting
92,1452.04,89495.345,299.158,2089,716,427,1311.567,34999.566,187.082,1750,985,634,2027.933,24768.262,157.379,2430,1792,467,1951.8,5751.387,75.838,2098,1728,71,1456.733,32180.089,179.388,1962,1172,228,1097.867,104681.849,323.546,1481,256,299,4791.54,4506.4,sitting
93,1382.053,44816.704,211.7,1657,716,464,1629.893,7627.229,87.334,1819,1413,95,2432.667,30312.076,174.104,2755,2000,469,1955.573,2466.058,49.659,2076,1851,27,1296.58,17228.057,131.256,1685,1125,460,1392.0,159993.187,399.991,1829,329,1109,5444.613333333334,4644.153333333334,sitting
94,1523.073,5809.308,76.219,1804,1373,13,1608.92,812.22,28.499,1743,1544,6,2532.287,2361.204,48.592,2743,2440,162,1946.12,376.586,19.406,2008,1873,84,1205.16,260.214,16.131,1264,1162,44,1685.827,548.397,23.418,1786,1648,2,5664.28,4837.106666666667,sitting
95,1485.853,93.298,9.659,1509,1461,14,1605.147,55.138,7.425,1623,1585,10,2508.907,54.791,7.402,2530,2485,15,1941.587,173.096,13.157,1980,1896,15,1204.58,168.284,12.972,1239,1165,4,1707.22,396.425,19.91,1760,1662,6,5599.906666666667,4853.386666666666,sitting
96,1488.687,65.935,8.12,1510,1469,29,1607.813,45.178,6.721,1626,1589,7,2511.507,58.877,7.673,2536,2487,11,1935.113,165.567,12.867,1980,1896,5,1206.747,161.749,12.718,1239,1169,9,1742.48,229.743,15.157,1782,1699,46,5608.006666666667,4884.34,sitting
97,1494.04,70.465,8.394,1515,1473,11,1604.78,68.358,8.268,1623,1586,14,2511.193,48.863,6.99,2529,2487,3,1936.327,166.887,12.918,1964,1872,21,1206.06,163.576,12.79,1238,1163,11,1726.547,386.448,19.658,1774,1687,36,5610.013333333333,4868.933333333333,sitting
98,1499.547,58.728,7.663,1520,1481,3,1603.633,54.539,7.385,1626,1586,10,2513.6,62.0,7.874,2549,2498,6,1937.3,176.543,13.287,1970,1872,3,1203.727,202.319,14.224,1253,1156,9,1726.14,445.987,21.118,1770,1671,28,5616.78,4867.166666666667,sitting
99,1497.373,55.207,7.43,1517,1482,6,1607.447,57.567,7.587,1625,1588,1,2515.027,42.666,6.532,2535,2499,9,1931.1,176.17,13.273,1960,1888,2,1208.8,157.72,12.559,1243,1169,24,1757.22,169.425,13.016,1794,1717,18,5619.846666666666,4897.12,sitting
0,38847.38,244204288.342,15627.037,65286,6,34047,9.107,0.095,0.308,10,9,1,31801.747,476032343.336,21818.165,65345,129,17856,1896.447,406.98,20.174,1934,1844,40,1229.0,1503.733,38.778,1323,1160,96,1817.633,16709.219,129.264,2045,1651,256,70658.23333333334,4943.08,standing
1,32389.58,442972261.524,21046.906,65286,262,22019,8.753,0.986,0.993,10,7,2,40929.0,191991466.667,13856.099,64769,17089,47680,1891.28,1028.908,32.077,1978,1806,23,1287.627,6192.461,78.692,1528,1119,223,1469.78,187172.172,432.634,2045,838,866,73327.33333333333,4648.6866666666665,standing
2,29236.02,153543040.26,12391.249,63236,2309,7937,7.44,0.246,0.496,8,7,0,27774.013,384859359.186,19617.833,65409,193,17856,1965.473,2917.916,54.018,2088,1796,61,1328.527,17916.529,133.853,1542,963,173,1357.64,53981.937,232.34,1662,838,762,57017.473333333335,4651.64,standing
3,31971.627,269367551.914,16412.421,65028,516,21247,7.453,0.248,0.498,8,7,0,37775.08,389200929.86,19728.176,65473,257,17856,1868.627,9481.994,97.376,2088,1689,45,1217.933,9639.169,98.179,1467,937,111,1556.207,4820.791,69.432,1664,1371,26,69754.16,4642.766666666666,standing
4,26496.587,518175664.136,22763.472,65028,516,63232,7.613,0.237,0.487,8,7,1,25057.0,191991466.667,13856.099,48897,1217,47680,1868.44,7273.033,85.282,2058,1619,34,1212.293,8494.634,92.166,1394,937,25,1539.453,4085.834,63.921,1677,1390,41,51561.2,4620.1866666666665,standing
5,20922.613,745389281.917,27301.818,65284,4,8192,7.707,0.207,0.455,8,7,0,33310.447,477462063.674,21850.905,65217,2,17856,1868.613,686.984,26.21,1935,1774,51,1217.673,592.087,24.333,1317,1134,18,1573.14,400.014,20.0,1628,1499,67,54240.76666666667,4659.426666666666,standing
6,8156.747,224746306.856,14991.541,64772,4,1280,7.933,0.062,0.249,8,7,0,36321.0,191991466.667,13856.099,60161,12481,47680,1881.293,198.794,14.099,1917,1829,24,1212.753,149.519,12.228,1246,1171,8,1575.94,162.87,12.762,1606,1547,8,44485.68,4669.986666666667,standing
7,14875.893,226407959.029,15046.859,63748,4,49664,7.907,0.085,0.292,8,7,1,29282.707,436345279.647,20888.879,65281,65,17856,1956.36,3763.377,61.346,2123,1868,11,1214.333,992.729,31.508,1318,1135,22,1554.107,667.122,25.829,1611,1475,27,44166.50666666667,4724.8,standing
8,40834.473,345412642.303,18585.28,63748,4,9730,7.38,0.249,0.499,9,7,0,39283.773,319122871.455,17864.011,65345,129,17856,1896.053,3045.744,55.188,2014,1772,134,1211.107,2587.162,50.864,1329,1049,53,1551.767,1056.006,32.496,1655,1475,93,80125.62666666666,4658.926666666666,standing
9,44325.773,396977979.522,19924.306,65029,5,16129,8.08,0.1,0.316,9,7,0,25254.973,270088661.493,16434.374,65345,129,17856,1898.2,2559.24,50.589,2055,1764,91,1216.107,2121.895,46.064,1382,1109,39,1564.193,2525.329,50.253,1677,1425,25,69588.82666666666,4678.5,standing
10,57139.193,73999045.596,8602.27,65029,5,53504,8.02,0.02,0.141,9,8,1,35256.04,456776200.465,21372.323,65409,193,17856,1892.507,255.343,15.979,1924,1842,10,1209.807,346.369,18.611,1267,1143,67,1620.507,435.65,20.872,1668,1539,4,92403.25333333333,4722.82,standing
11,54587.587,139678385.656,11818.561,63237,2309,41985,8.06,0.056,0.237,9,8,1,31713.0,191991466.667,13856.099,55553,7873,47680,1898.033,394.406,19.86,1941,1801,100,1207.053,302.704,17.398,1243,1139,36,1614.6,475.827,21.813,1662,1499,131,86308.64666666667,4719.6866666666665,standing
12,37641.933,433349529.729,20817.049,65285,4,7168,6.587,1.802,1.342,9,4,2,31228.307,469290139.466,21663.105,65473,257,17856,1898.493,1315.317,36.267,2033,1801,97,1209.72,1334.668,36.533,1311,1107,43,1632.14,2754.4,52.482,1901,1499,4,68876.82666666666,4740.3533333333335,standing
13,34016.707,361332347.727,19008.744,65284,516,40192,7.013,0.48,0.693,8,5,2,40792.473,229021966.769,15133.472,65217,2,17856,1941.407,3478.988,58.983,2053,1802,0,1205.713,2309.378,48.056,1311,1067,47,1635.24,1667.342,40.833,1739,1554,70,74816.19333333333,4782.36,standing
14,28667.707,314701748.634,17739.835,65029,5,20223,7.093,0.111,0.333,8,6,0,26763.673,351607678.727,18751.205,65217,2,17856,1892.193,7982.409,89.344,2147,1737,73,1208.72,2992.322,54.702,1324,1019,80,1628.287,1393.658,37.332,1726,1554,8,55438.473333333335,4729.2,standing
15,41740.587,76568457.949,8750.34,60932,1541,11009,7.027,0.026,0.161,8,7,0,36764.733,416731595.662,20414.005,65281,65,17856,1920.34,1001.438,31.646,2033,1857,21,1204.86,837.174,28.934,1267,1123,14,1665.153,1267.743,35.605,1739,1586,71,78512.34666666666,4790.3533333333335,standing
16,44716.993,6324385.073,2514.833,50436,38661,1280,7.0,0.0,0.0,7,7,0,27105.0,191991466.667,13856.099,50945,3265,47680,1908.4,205.787,14.345,1946,1872,1,1207.88,323.226,17.978,1253,1155,18,1721.84,585.588,24.199,1778,1665,35,71828.99333333333,4838.12,standing
17,42170.62,39335869.356,6271.831,61188,26884,14336,7.0,0.0,0.0,7,7,0,32737.0,479301290.667,21892.951,65345,129,17856,1891.52,656.05,25.613,1957,1834,17,1209.787,298.234,17.269,1249,1166,13,1700.36,1412.524,37.584,1778,1612,28,74914.62,4801.666666666667,standing
18,47213.833,300354517.512,17330.739,64772,516,3840,7.127,0.111,0.333,8,7,0,38369.0,191991466.667,13856.099,62209,14529,47680,1965.313,1495.775,38.675,2078,1862,60,1203.7,480.69,21.925,1267,1137,19,1622.587,1994.082,44.655,1722,1506,113,85589.96,4791.6,standing
19,27252.833,308007284.619,17550.136,54788,5,36096,7.0,0.0,0.0,7,7,0,28709.267,416731595.662,20414.005,65409,193,17856,1886.213,6488.701,80.552,2050,1738,171,1208.827,2321.597,48.183,1323,1104,36,1608.433,2176.459,46.653,1720,1500,67,55969.1,4703.473333333333,standing
20,32159.747,365920382.216,19129.046,65285,262,40965,6.773,1.389,1.179,9,5,2,38710.333,351608035.556,18751.214,65473,257,17856,1915.74,5129.139,71.618,2060,1738,151,1208.427,2708.311,52.041,1323,1077,64,1649.007,1800.473,42.432,1729,1500,19,70876.85333333333,4773.173333333333,standing
21,46808.927,193680739.361,13916.923,65289,1543,49411,5.26,0.472,0.687,8,5,3,24681.533,229022510.649,15133.49,65473,257,17856,1923.707,1014.181,31.846,1988,1832,133,1206.227,309.922,17.605,1250,1159,30,1680.567,455.259,21.337,1739,1634,8,71495.72,4810.5,standing
22,32507.047,419360077.124,20478.283,65289,5,3077,7.087,1.146,1.071,9,5,2,34245.7,469289682.877,21663.095,65217,2,17856,1896.873,1031.884,32.123,1988,1827,20,1206.587,626.696,25.034,1270,1145,2,1662.987,800.16,28.287,1739,1598,30,66759.83333333333,4766.446666666667,standing
23,36680.52,469385405.863,21665.304,65029,4,4095,7.193,0.156,0.395,8,7,0,33761.0,191991466.667,13856.099,57601,9921,47680,1920.58,2318.377,48.15,2007,1775,74,1201.707,1516.874,38.947,1262,1074,25,1662.44,1622.9,40.285,1747,1557,24,70448.71333333333,4784.7266666666665,standing
24,15707.367,138841896.566,11783.119,64260,4,8703,6.973,0.026,0.161,7,6,0,30217.96,456776200.465,21372.323,65281,65,17856,1814.267,3800.862,61.651,2028,1703,73,1223.38,3471.102,58.916,1364,1056,73,1679.033,3522.886,59.354,1791,1520,27,45932.3,4716.68,standing
25,31165.333,338657306.662,18402.644,65284,5,30725,7.8,0.693,0.832,10,7,1,40219.027,270088661.493,16434.374,65345,129,17856,1894.287,3963.498,62.956,2028,1736,25,1207.853,3999.392,63.241,1345,1003,25,1639.653,4112.16,64.126,1791,1461,25,71392.16,4741.793333333333,standing
26,33982.293,351626542.021,18751.708,65289,778,42245,8.84,0.388,0.623,10,8,1,26190.227,319122871.455,17864.011,65345,129,17856,1905.053,872.824,29.544,1965,1825,26,1208.093,301.258,17.357,1243,1160,13,1676.26,656.286,25.618,1732,1613,57,60181.36,4789.406666666667,standing
27,33345.78,381726890.958,19537.832,65290,267,6918,8.647,1.268,1.126,12,6,2,36191.293,436345279.647,20888.879,65409,193,17856,1911.307,309.906,17.604,1956,1860,12,1209.587,351.589,18.751,1265,1154,31,1666.673,249.66,15.801,1703,1611,17,69545.72,4787.566666666667,standing
28,31330.327,416903089.727,20418.205,65284,1027,42756,7.62,0.582,0.763,9,6,0,29153.0,191991466.667,13856.099,52993,5313,47680,1897.24,471.876,21.723,1956,1826,12,1208.56,368.833,19.205,1264,1153,33,1631.627,727.207,26.967,1695,1546,68,60490.94666666666,4737.426666666666,standing
29,12445.673,119251088.807,10920.215,65284,260,0,7.987,0.013,0.114,8,7,0,32163.56,477462507.793,21850.915,65473,257,17856,1938.86,3372.454,58.073,2099,1855,68,1204.213,1121.634,33.491,1371,1088,180,1609.433,1278.032,35.75,1680,1498,62,44617.22,4752.506666666667,standing
30,32007.5,468900739.21,21654.116,65284,4,27903,7.48,0.25,0.5,8,7,1,40417.0,191991466.667,13856.099,64257,16577,47680,1944.093,4661.778,68.277,2099,1796,64,1209.233,7866.366,88.693,1386,906,37,1599.22,2558.185,50.579,1749,1498,1,72431.98,4752.546666666667,standing
31,41080.053,89676479.784,9469.767,64004,516,60160,7.027,0.026,0.161,8,7,1,27698.927,389200560.561,19728.167,65217,2,17856,1918.053,727.477,26.972,1994,1856,63,1203.093,1134.618,33.684,1282,1077,27,1615.28,1337.468,36.571,1692,1506,33,68786.00666666667,4736.426666666666,standing
32,42042.613,163233212.37,12776.275,65284,4,2560,7.073,0.068,0.261,8,7,0,37699.987,384859359.186,19617.833,65281,65,17856,1900.113,1447.474,38.046,1970,1814,81,1209.053,388.277,19.705,1258,1152,20,1608.687,1584.055,39.8,1692,1526,61,79749.67333333334,4717.8533333333335,standing
33,42167.293,136052095.087,11664.137,62468,5892,14080,7.173,0.143,0.378,8,7,0,24545.0,191991466.667,13856.099,48385,705,47680,1856.62,4693.689,68.511,2015,1680,30,1216.553,5080.967,71.281,1381,940,38,1605.78,3971.385,63.019,1780,1466,98,66719.46666666666,4678.953333333333,standing
34,34367.827,647897710.703,25453.835,65284,4,43776,7.533,0.249,0.499,8,7,1,33672.253,476032343.336,21818.165,65345,129,17856,1827.68,6498.084,80.611,2015,1616,123,1224.787,3922.208,62.628,1381,1016,64,1569.24,5538.329,74.42,1780,1448,312,68047.61333333333,4621.706666666667,standing
35,28616.267,780947437.796,27945.437,65284,4,46336,7.587,0.242,0.492,8,7,1,35809.0,191991466.667,13856.099,59649,11969,47680,1773.967,1154.752,33.982,1842,1672,70,1241.5,979.717,31.3,1335,1147,49,1479.513,1438.543,37.928,1599,1352,43,64432.85333333333,4494.98,standing
36,33758.5,577504402.877,24031.321,65285,260,30209,7.54,0.248,0.498,8,7,1,29644.52,442065937.476,21025.364,65409,193,17856,1782.973,2029.746,45.053,1899,1672,20,1246.22,1766.198,42.026,1354,1147,22,1454.9,4893.73,69.955,1655,1338,136,63410.56,4484.093333333333,standing
37,32043.147,471412164.245,21712.028,65033,265,55547,7.933,0.342,0.585,9,7,2,39645.587,307477246.589,17535.029,65473,257,17856,1827.987,1585.573,39.819,1909,1722,63,1224.147,664.432,25.777,1314,1165,14,1546.393,7041.012,83.911,1646,1350,182,71696.66666666667,4598.526666666667,standing
38,30275.507,344112765.277,18550.277,65288,3,7942,7.693,0.893,0.945,10,5,1,25616.787,282960141.608,16821.419,65473,257,17856,1863.807,1069.583,32.704,1938,1769,36,1212.373,580.021,24.084,1295,1134,28,1574.613,499.517,22.35,1624,1525,8,55899.986666666664,4650.793333333333,standing
39,19835.2,241941645.973,15554.474,64001,3,19200,7.807,0.409,0.64,10,6,2,35180.953,454579407.418,21320.868,65217,2,17856,1870.267,1674.689,40.923,2000,1786,100,1210.767,944.792,30.737,1321,1134,24,1567.767,570.286,23.881,1633,1523,7,55023.96,4648.8,standing
40,30174.4,328485668.96,18124.174,64772,772,1793,7.547,0.248,0.498,8,7,0,31201.0,191991466.667,13856.099,55041,7361,47680,1865.287,5268.991,72.588,2020,1704,132,1213.04,2043.998,45.211,1330,1117,33,1598.587,828.602,28.785,1659,1536,25,61382.94666666666,4676.913333333333,standing
41,31301.547,306231680.514,17499.477,64259,261,41471,7.047,0.538,0.733,9,6,0,31153.213,470669226.621,21694.912,65281,65,17856,1877.127,7987.297,89.372,2076,1704,181,1208.14,1980.56,44.503,1316,1026,56,1608.227,1239.829,35.211,1695,1524,48,62461.806666666664,4693.493333333333,standing
42,35363.26,171529680.046,13096.934,63237,517,7682,6.84,0.414,0.643,9,5,1,41154.28,214516556.868,14646.384,65345,129,17856,1895.273,3829.225,61.881,2076,1787,155,1209.78,2346.438,48.44,1350,1077,95,1647.007,2813.42,53.042,1745,1524,164,76524.38,4752.06,standing
43,41071.613,6168754.397,2483.698,46596,30469,9983,7.0,0.0,0.0,7,7,0,27125.48,361619186.756,19016.287,65345,129,17856,1877.433,293.299,17.126,1914,1832,36,1206.833,373.206,19.319,1275,1114,78,1702.04,196.785,14.028,1738,1665,11,68204.09333333334,4786.306666666666,standing
44,42242.293,4239302.474,2058.957,47364,35588,3328,7.0,0.0,0.0,7,7,0,37126.547,409376464.168,20233.054,65409,193,17856,1882.447,235.234,15.337,1918,1831,13,1208.333,217.462,14.747,1253,1153,71,1708.627,146.327,12.097,1738,1677,31,79375.84,4799.406666666667,standing
45,38202.613,14367751.464,3790.482,50948,28932,11264,7.0,0.0,0.0,7,7,0,26593.0,191991466.667,13856.099,50433,2753,47680,1867.987,355.84,18.864,1920,1820,7,1210.02,257.873,16.058,1244,1167,27,1673.533,784.582,28.01,1733,1602,113,64802.613333333335,4751.54,standing
46,48080.893,279690734.335,16723.957,65284,4,12288,7.1,0.09,0.3,8,7,0,33098.813,479096981.458,21888.284,65473,257,17856,1933.02,1621.033,40.262,2009,1840,20,1203.087,641.172,25.321,1263,1137,27,1619.86,596.04,24.414,1681,1568,3,81186.80666666667,4755.966666666666,standing
47,29995.253,427109241.469,20666.621,65284,4,4864,6.947,0.077,0.277,8,6,0,37857.0,191991466.667,13856.099,61697,14017,47680,1855.1,4484.41,66.966,2009,1734,216,1224.127,2717.177,52.127,1354,988,227,1533.667,3535.729,59.462,1650,1424,163,67859.2,4612.893333333333,standing
48,29017.627,282616163.554,16811.192,64772,4,62464,7.42,0.297,0.545,8,6,2,28634.18,420255547.734,20500.135,65217,2,17856,1860.587,3476.269,58.96,2002,1755,66,1224.067,3998.729,63.236,1354,988,76,1513.373,2048.514,45.261,1636,1414,99,57659.22666666667,4598.026666666667,standing
49,42889.087,313726433.039,17712.324,64772,4,4608,7.167,0.139,0.373,8,7,0,38635.24,346449228.049,18613.147,65281,65,17856,1825.027,259.199,16.1,1866,1770,18,1223.74,311.072,17.637,1283,1169,3,1526.193,611.356,24.726,1605,1465,10,81531.49333333333,4574.96,standing
50,42819.147,769908134.525,27747.219,65284,4,3584,7.32,0.218,0.467,8,7,0,24606.44,236122255.633,15366.27,65281,65,17856,1848.44,219.073,14.801,1880,1800,14,1218.193,182.449,13.507,1254,1175,2,1566.987,682.52,26.125,1614,1498,50,67432.90666666666,4633.62,standing
51,53961.973,102080749.386,10103.502,65284,4,4864,7.027,0.026,0.161,8,7,0,34607.507,466225501.343,21592.256,65345,129,17856,1853.127,151.511,12.309,1893,1826,11,1223.24,205.582,14.338,1262,1178,26,1507.887,1302.287,36.087,1597,1439,43,88576.50666666667,4584.253333333333,standing
52,54520.053,40518144.637,6365.386,62980,1540,5888,7.053,0.05,0.224,8,7,1,33249.0,191991466.667,13856.099,57089,9409,47680,1856.333,194.036,13.93,1896,1815,44,1224.64,157.844,12.564,1262,1181,9,1511.107,172.069,13.118,1541,1454,39,87776.10666666667,4592.08,standing
53,35601.393,397844468.345,19946.039,65031,5,16635,7.773,0.389,0.624,9,7,1,30579.773,460862384.629,21467.706,65409,193,17856,1847.567,371.672,19.279,1891,1785,3,1219.753,250.786,15.836,1284,1171,24,1542.287,558.391,23.63,1630,1486,47,66188.94,4609.606666666667,standing
54,31572.253,429994399.736,20736.306,64772,260,6906,7.58,0.284,0.533,8,6,0,40580.84,256808562.961,16025.248,65473,257,17856,1855.58,553.484,23.526,1921,1785,25,1222.027,466.279,21.593,1284,1163,42,1529.4,822.6,28.681,1630,1476,51,72160.67333333334,4607.006666666667,standing
55,52274.08,334726491.887,18295.532,65284,260,4352,7.127,0.111,0.333,8,7,0,26552.04,330359877.905,18175.805,65473,257,17856,1859.707,194.874,13.96,1913,1808,12,1224.607,160.625,12.674,1261,1182,34,1507.013,168.506,12.981,1538,1472,5,78833.24666666667,4591.326666666667,standing
56,60307.36,30135619.857,5489.592,65284,260,512,7.007,0.007,0.084,8,7,0,36116.207,433331237.297,20816.61,65217,2,17856,1854.673,152.247,12.339,1880,1820,1,1220.687,176.868,13.299,1260,1182,38,1529.227,374.282,19.346,1582,1480,30,96430.57333333333,4604.586666666667,standing
57,50741.493,472862072.65,21745.392,65284,4,59392,7.207,0.164,0.405,8,7,1,28641.0,191991466.667,13856.099,52481,4801,47680,1874.087,2237.586,47.303,2012,1820,144,1212.64,1005.47,31.709,1294,1105,49,1561.247,310.306,17.616,1608,1516,33,79389.7,4647.973333333333,standing
58,33204.033,567977088.499,23832.27,65284,772,39169,7.52,0.263,0.513,8,6,1,32088.467,478024358.116,21863.768,65281,65,17856,1901.213,4664.701,68.299,2053,1777,125,1220.467,1225.702,35.01,1304,1130,9,1572.007,436.807,20.9,1629,1499,46,65300.02,4693.6866666666665,standing
59,29634.16,341687037.454,18484.779,64516,1029,14079,6.687,0.348,0.59,8,5,1,39905.0,191991466.667,13856.099,63745,16065,47680,1869.787,1459.194,38.199,1984,1783,116,1214.427,1018.925,31.921,1302,1130,81,1531.847,489.583,22.127,1589,1477,41,69545.84666666666,4616.06,standing
60,23228.693,25805552.533,5079.917,32260,6661,18687,7.0,0.0,0.0,7,7,0,28060.733,397577607.396,19939.348,65345,129,17856,1890.333,356.409,18.879,1940,1837,9,1213.18,351.734,18.755,1254,1162,30,1576.653,851.386,29.179,1622,1510,30,51296.426666666666,4680.166666666667,standing
61,25494.867,3420445.849,1849.445,30980,20996,1025,7.0,0.0,0.0,7,7,0,38061.8,375869754.027,19387.361,65409,193,17856,1887.847,174.103,13.195,1933,1852,13,1211.96,162.852,12.761,1245,1181,32,1590.893,168.829,12.993,1627,1551,34,63563.666666666664,4690.7,standing
62,26240.66,9291729.078,3048.234,36356,15877,7168,7.0,0.0,0.0,7,7,0,24033.0,191991466.667,13856.099,47873,193,47680,1869.2,913.013,30.216,1917,1794,17,1208.02,412.593,20.312,1260,1150,0,1618.233,1076.712,32.813,1691,1563,100,50280.66,4695.453333333333,standing
63,42646.967,74009784.886,8602.894,60164,15877,20992,7.0,0.0,0.0,7,7,0,34034.067,474193560.462,21775.986,65473,257,17856,1870.547,756.661,27.507,1936,1794,30,1208.087,1543.652,39.289,1303,1117,9,1698.94,1079.923,32.862,1806,1645,4,76688.03333333334,4777.573333333334,standing
64,48021.14,8659798.88,2942.754,54532,39940,5631,7.0,0.0,0.0,7,7,0,35297.0,191991466.667,13856.099,59137,11457,47680,1883.053,273.13,16.527,1936,1832,14,1206.667,875.022,29.581,1298,1121,73,1653.873,2446.564,49.463,1806,1588,96,83325.14,4743.593333333333,standing
65,45788.747,13066774.482,3614.799,51972,36100,8960,7.0,0.0,0.0,7,7,0,29569.433,444772640.246,21089.633,65217,2,17856,1874.86,431.64,20.776,1911,1824,61,1210.127,172.151,13.121,1253,1172,7,1631.913,324.052,18.001,1669,1584,20,75365.18,4716.9,standing
66,41163.693,243705218.266,15611.061,64772,4,512,7.133,0.116,0.341,8,7,0,39570.493,301501202.25,17363.79,65281,65,17856,1912.74,2969.019,54.489,2021,1812,63,1206.28,536.068,23.153,1253,1125,5,1604.4,781.92,27.963,1673,1529,2,80741.32,4723.42,standing
67,48306.08,14847241.967,3853.212,61188,37892,12544,7.0,0.0,0.0,7,7,0,25541.693,289242649.759,17007.135,65281,65,17856,1892.853,459.178,21.428,1964,1848,86,1208.613,469.904,21.677,1254,1154,11,1657.4,335.68,18.322,1697,1607,44,73854.77333333333,4758.866666666667,standing
68,50396.747,7465631.016,2732.331,56068,44036,5888,7.0,0.0,0.0,7,7,0,35542.76,449880764.689,21210.393,65345,129,17856,1894.04,212.332,14.572,1932,1860,12,1203.413,183.176,13.534,1236,1168,7,1658.533,161.889,12.724,1690,1621,8,85946.50666666667,4755.986666666667,standing
69,52318.467,9627007.262,3102.742,64004,45060,5632,7.0,0.0,0.0,7,7,0,30689.0,191991466.667,13856.099,54529,6849,47680,1892.687,196.082,14.003,1928,1856,20,1206.06,200.296,14.153,1236,1160,1,1667.64,163.75,12.796,1696,1628,2,83014.46666666666,4766.386666666666,standing
70,31299.64,366265220.11,19138.057,65285,261,45824,7.46,0.248,0.498,8,7,1,31515.027,473120937.119,21751.343,65409,193,17856,1886.893,477.269,21.846,1960,1813,40,1208.313,412.295,20.305,1257,1152,14,1642.433,703.432,26.522,1696,1560,74,62822.12666666666,4737.64,standing
71,21932.847,306200868.623,17498.596,65028,1284,6144,7.793,0.164,0.405,8,7,0,41516.093,199601984.671,14128.057,65473,257,17856,1937.827,2908.837,53.934,2100,1836,2,1208.213,637.408,25.247,1273,1151,27,1623.833,909.819,30.163,1685,1549,38,63456.73333333333,4769.873333333333,standing
72,41749.067,256733056.569,16022.892,65028,1540,41472,7.153,0.13,0.361,8,7,1,27487.293,371221719.541,19267.115,65473,257,17856,1841.653,1764.386,42.005,1944,1765,77,1214.353,2074.282,45.544,1339,1070,4,1640.22,608.945,24.677,1736,1575,16,69243.51333333334,4696.2266666666665,standing
73,52888.48,21788771.396,4667.844,61188,40708,2560,7.0,0.0,0.0,7,7,0,37051.46,405545172.515,20138.152,65217,2,17856,1836.64,421.67,20.535,1898,1779,91,1211.133,474.676,21.787,1281,1140,28,1635.693,280.746,16.755,1677,1590,33,89946.94,4683.466666666666,standing
74,54741.92,4513307.034,2124.455,59652,49924,3584,7.0,0.0,0.0,7,7,0,26081.0,191991466.667,13856.099,49921,2241,47680,1842.8,179.187,13.386,1898,1805,2,1211.693,214.479,14.645,1258,1165,38,1624.713,175.844,13.261,1659,1591,12,80829.92,4679.206666666667,standing
75,54900.64,5961573.99,2441.633,61444,48388,4352,7.0,0.0,0.0,7,7,0,33023.72,478841594.948,21882.449,65281,65,17856,1842.933,198.596,14.092,1880,1800,17,1210.113,226.287,15.043,1244,1130,3,1645.867,249.436,15.794,1683,1581,49,87931.36,4698.913333333333,standing
76,55702.773,7587624.095,2754.564,62724,48900,1792,7.0,0.0,0.0,7,7,0,37345.0,191991466.667,13856.099,61185,13505,47680,1844.393,264.599,16.266,1892,1794,45,1211.773,247.562,15.734,1250,1130,21,1664.747,232.802,15.258,1704,1626,32,93054.77333333333,4720.913333333333,standing
77,44549.733,91255163.316,9552.757,62724,19972,34304,7.0,0.0,0.0,7,7,0,28995.987,426998133.373,20663.933,65345,129,17856,1828.853,1941.392,44.061,1943,1694,164,1211.227,1383.922,37.201,1309,1076,45,1649.233,2118.926,46.032,1772,1541,75,73552.72,4689.3133333333335,standing
78,33780.64,34581363.644,5880.592,44036,19972,5632,7.0,0.0,0.0,7,7,0,38997.053,335825149.224,18325.533,65409,193,17856,1753.987,3173.2,56.331,1871,1625,14,1231.173,3134.583,55.987,1384,1099,79,1650.14,2290.574,47.86,1754,1472,2,72784.69333333333,4635.3,standing
79,42013.6,431001217.707,20760.569,65028,260,27904,7.227,0.175,0.418,8,7,1,24968.253,250015281.789,15811.872,65409,193,17856,1851.387,3164.157,56.251,1969,1700,190,1221.687,2778.495,52.711,1365,1079,39,1540.967,3121.672,55.872,1698,1463,145,66989.08,4614.04,standing
80,47379.36,471633083.324,21717.115,65028,4,4608,7.2,0.16,0.4,8,7,0,34969.32,462752244.804,21511.677,65473,257,17856,1856.853,347.165,18.632,1894,1807,48,1223.627,360.527,18.988,1269,1170,31,1507.067,226.062,15.035,1543,1467,7,82355.88,4587.546666666667,standing
81,45513.973,764948553.546,27657.703,65284,4,6912,7.28,0.202,0.449,8,7,0,32737.0,191991466.667,13856.099,56577,8897,47680,1870.253,176.936,13.302,1902,1838,6,1219.727,219.652,14.821,1260,1167,29,1521.993,172.207,13.123,1552,1469,42,78258.25333333333,4611.973333333333,standing
82,48751.52,684065003.93,26154.636,65284,4,768,7.233,0.179,0.423,8,7,0,30504.687,462751838.095,21511.667,65217,2,17856,1863.847,216.61,14.718,1904,1813,17,1217.893,152.069,12.332,1248,1187,18,1539.073,176.348,13.28,1570,1507,39,79263.44,4620.8133333333335,standing
83,45908.213,738915024.168,27182.991,65284,4,512,7.273,0.199,0.446,8,7,0,40505.747,250015281.789,15811.872,65281,65,17856,1858.853,168.765,12.991,1898,1813,17,1216.927,175.161,13.235,1250,1182,22,1550.32,131.031,11.447,1587,1524,22,86421.23333333334,4626.1,standing
84,49732.853,605165703.805,24600.116,65284,4,56576,7.207,0.164,0.405,8,7,1,26476.947,335825149.224,18325.533,65281,65,17856,1866.54,160.622,12.674,1901,1834,12,1218.1,154.77,12.441,1250,1176,5,1543.393,123.185,11.099,1575,1512,9,76217.00666666667,4628.033333333334,standing
85,43071.827,638351576.543,25265.62,65284,4,29954,7.333,0.222,0.471,8,7,1,36478.013,426998133.373,20663.933,65345,129,17856,1866.007,187.807,13.704,1901,1816,28,1215.567,157.512,12.55,1242,1177,25,1553.453,191.861,13.851,1595,1514,26,79557.17333333334,4635.026666666667,standing
86,26927.387,297787827.757,17256.53,64517,260,38403,6.073,1.575,1.255,10,2,3,28129.0,191991466.667,13856.099,51969,4289,47680,1860.48,431.41,20.77,1914,1810,63,1212.113,763.034,27.623,1275,1132,20,1576.253,594.309,24.378,1651,1525,22,55062.46,4648.846666666666,standing
87,30921.387,437188815.064,20909.061,65284,4,5,6.593,1.841,1.357,10,2,5,32450.28,478841594.948,21882.449,65409,193,17856,1892.213,2724.421,52.196,2009,1801,120,1215.027,750.279,27.391,1286,1147,63,1554.867,1200.236,34.644,1651,1477,65,63378.26,4662.106666666667,standing
88,27861.933,354436824.009,18826.493,65284,772,34560,7.587,0.242,0.492,8,7,0,39393.0,191991466.667,13856.099,63233,15553,47680,1934.24,5333.689,73.032,2077,1775,142,1212.853,880.352,29.671,1278,1091,36,1559.387,699.117,26.441,1634,1510,47,67262.52,4706.48,standing
89,46375.84,57337035.708,7572.122,61188,30468,6144,7.0,0.0,0.0,7,7,0,28422.547,405545666.514,20138.164,65473,257,17856,1845.54,1318.355,36.309,1915,1775,19,1211.447,1610.247,40.128,1300,1092,21,1639.053,1882.41,43.387,1726,1516,87,74805.38666666667,4696.04,standing
90,58145.013,34484638.333,5872.362,64772,1028,13056,7.007,0.007,0.084,8,7,0,37986.713,371221213.071,19267.102,65217,2,17856,1885.667,351.969,18.761,1929,1834,10,1209.273,920.839,30.345,1292,1115,23,1671.333,410.996,20.273,1715,1616,17,96138.73333333334,4766.2733333333335,standing
91,58240.587,4713119.016,2170.972,63748,53252,4096,7.0,0.0,0.0,7,7,0,23957.913,199601665.252,14128.045,65217,2,17856,1884.22,202.238,14.221,1919,1828,1,1206.58,188.977,13.747,1251,1174,11,1667.48,251.423,15.856,1704,1619,29,82205.5,4758.28,standing
92,58204.747,5696377.469,2386.709,65028,51716,2048,7.0,0.0,0.0,7,7,0,33958.973,473120937.119,21751.343,65281,65,17856,1881.3,118.943,10.906,1909,1853,1,1207.313,169.428,13.016,1239,1170,37,1660.633,227.032,15.068,1698,1629,45,92170.72,4749.246666666667,standing
93,55617.44,19232351.846,4385.471,64772,43524,14080,7.0,0.0,0.0,7,7,0,34785.0,191991466.667,13856.099,58625,10945,47680,1889.033,333.166,18.253,1958,1834,8,1209.593,357.081,18.897,1254,1164,5,1635.673,889.287,29.821,1699,1552,84,90409.44,4734.3,standing
94,40975.947,45273436.797,6728.554,57348,31236,1536,7.0,0.0,0.0,7,7,0,29931.24,449880764.689,21210.393,65345,129,17856,1846.24,1348.729,36.725,1928,1766,16,1218.113,727.5,26.972,1294,1155,9,1543.12,892.692,29.878,1631,1490,81,70914.18666666666,4607.473333333333,standing
95,25667.147,448556290.685,21179.148,65284,260,19968,7.627,0.234,0.484,8,7,0,39932.307,289242649.759,17007.135,65409,193,17856,1915.587,1929.482,43.926,2007,1790,36,1211.947,1371.01,37.027,1300,1115,6,1566.753,511.306,22.612,1624,1511,51,65607.08,4694.286666666667,standing
96,42836.213,199273250.088,14116.418,65028,260,40960,7.1,0.09,0.3,8,7,1,25903.507,301501202.25,17363.79,65409,193,17856,1837.907,2009.205,44.824,1946,1755,60,1217.893,1236.815,35.168,1299,1136,61,1611.547,1565.701,39.569,1712,1545,30,68746.82,4667.346666666666,standing
97,21272.48,405187697.05,20129.275,65028,4,38400,7.667,0.222,0.471,8,7,1,35904.573,444773034.485,21089.643,65473,257,17856,1908.633,3351.006,57.888,1997,1762,198,1220.713,1834.898,42.836,1339,1096,40,1527.413,6606.376,81.28,1712,1391,256,57184.72,4656.76,standing
98,27303.84,517579105.894,22750.365,64260,4,32512,7.453,0.248,0.498,8,7,1,30177.0,191991466.667,13856.099,54017,6337,47680,1925.62,2461.142,49.61,2001,1797,64,1240.113,1206.714,34.738,1319,1115,26,1415.42,895.844,29.931,1517,1360,20,57488.293333333335,4581.153333333334,standing
99,39131.04,26241558.118,5122.651,50436,27652,1024,7.0,0.0,0.0,7,7,0,31439.94,474193141.283,21775.976,65217,2,17856,1872.107,947.895,30.788,1955,1797,9,1220.82,1248.441,35.333,1319,1115,47,1535.233,6292.979,79.328,1709,1360,247,70577.98,4628.16,standing
0,1028.88,11270.159,106.161,1289,802,297,1755.133,13961.836,118.16,1964,1494,298,2089.213,12511.048,111.853,2429,1939,219,1946.013,2169.626,46.579,2088,1776,22,1216.893,4406.575,66.382,1631,1027,131,1583.42,19399.07,139.281,1878,1262,78,4873.2266666666665,4746.326666666667,walking
1,1355.833,89305.259,298.84,1786,910,722,1446.0,186749.107,432.145,2036,636,596,2042.827,9984.837,99.924,2308,1813,29,1918.693,17355.279,131.739,2516,1297,428,1200.147,17193.338,131.123,1802,762,138,1625.387,28223.97,168.0,1945,1124,108,4844.66,4744.2266666666665,walking
2,1685.52,4404.503,66.366,1825,1555,48,1180.787,15360.741,123.938,1393,938,31,2043.54,3905.688,62.496,2199,1959,41,1932.047,15767.431,125.568,2370,1699,19,1215.0,25992.493,161.222,1591,872,95,1643.893,26261.842,162.055,1945,1124,69,4909.846666666666,4790.94,walking
3,1769.5,10880.61,104.31,2007,1572,273,1317.62,45988.782,214.45,1783,899,704,2281.493,42118.57,205.228,2666,1965,526,1914.433,19232.046,138.68,2532,1620,99,1222.067,69614.342,263.845,1651,356,91,1684.24,64489.249,253.947,2196,625,172,5368.613333333334,4820.74,walking
4,1931.913,3338.106,57.776,2045,1804,65,1666.727,12379.945,111.265,1849,1301,422,2604.807,14117.423,118.817,2843,2343,27,1922.987,9700.946,98.493,2130,1681,30,1236.92,39343.887,198.353,1723,627,141,1788.287,12983.284,113.944,2066,1563,237,6203.446666666667,4948.193333333334,walking
5,1819.08,7838.367,88.535,2000,1557,358,1294.827,129671.637,360.099,1827,627,220,2249.893,50416.989,224.537,2751,1834,842,1913.967,18063.032,134.399,2348,1567,88,1227.2,108090.587,328.771,1831,200,269,1720.087,46636.546,215.955,2099,1015,52,5363.8,4861.253333333333,walking
6,1739.0,16053.773,126.703,2000,1405,166,1162.187,140173.298,374.397,1767,443,341,2016.7,10410.717,102.033,2245,1834,241,1924.793,54209.364,232.829,2766,1182,33,1248.267,207363.049,455.371,1873,25,332,1647.333,93228.836,305.334,2391,475,457,4917.886666666666,4820.393333333333,walking
7,1700.52,21234.29,145.72,2067,1405,219,1213.293,85758.794,292.846,1721,607,202,2062.26,13818.006,117.55,2285,1844,31,1914.667,53928.676,232.225,2714,1256,139,1247.267,140189.036,374.418,1844,385,260,1674.067,112317.129,335.137,2370,485,636,4976.073333333334,4836.0,walking
8,1698.86,12222.52,110.556,2067,1452,116,1148.853,149914.165,387.188,1683,225,608,2006.173,9720.237,98.591,2198,1823,6,1876.427,52982.885,230.18,2576,1237,20,1175.567,232074.766,481.741,1920,26,290,1629.047,93977.764,306.558,2233,655,96,4853.886666666666,4681.04,walking
9,1698.267,20148.036,141.944,2192,1452,98,1137.773,181933.135,426.536,1763,202,297,2005.72,10739.682,103.632,2246,1823,111,1905.467,58972.582,242.843,2689,1299,249,1191.673,272593.54,522.105,1998,24,553,1616.793,90676.471,301.125,2515,665,10,4841.76,4713.933333333333,walking
10,1721.86,19078.947,138.127,2040,1456,176,1134.487,107904.45,328.488,1652,437,567,1994.447,10426.314,102.109,2284,1774,92,1921.007,75966.06,275.619,2961,1268,595,1239.393,227725.039,477.205,2064,198,171,1645.727,87701.719,296.145,2360,621,983,4850.793333333333,4806.126666666667,walking
11,1714.087,13059.239,114.277,1980,1478,225,1123.027,77634.893,278.63,1579,405,264,2003.667,9608.769,98.024,2230,1805,5,1918.773,66076.015,257.053,3026,975,98,1240.093,174322.205,417.519,2064,392,193,1612.127,97584.004,312.384,2242,559,445,4840.78,4770.993333333333,walking
12,1605.933,29175.609,170.809,1929,1274,330,1111.387,67719.93,260.231,1553,474,240,1990.087,13946.999,118.097,2166,1643,130,2009.04,62623.385,250.247,2807,1236,50,1213.94,93872.936,306.387,1677,23,549,1531.8,51355.6,226.618,2196,895,295,4707.406666666667,4754.78,walking
13,1591.087,15164.679,123.145,1812,1282,390,1150.473,44235.849,210.323,1541,748,30,2005.693,10155.866,100.776,2174,1643,353,1922.133,41268.622,203.147,2322,1477,526,1212.547,66014.728,256.933,1725,503,16,1531.967,67062.872,258.965,2086,602,445,4747.253333333333,4666.6466666666665,walking
14,1708.72,5162.655,71.852,1854,1493,114,1159.28,72468.202,269.199,1582,639,642,1998.82,2420.468,49.198,2119,1905,50,1902.227,48111.589,219.344,2488,1292,590,1213.573,107145.805,327.331,1840,303,844,1504.867,101406.756,318.444,2086,469,120,4866.82,4620.666666666667,walking
15,1648.767,55106.592,234.748,2011,1169,52,1203.987,102442.133,320.066,1860,529,290,2098.953,41119.844,202.78,2635,1805,133,1902.807,53212.983,230.679,2740,1375,39,1226.38,63559.089,252.109,1695,303,359,1581.513,52236.17,228.552,1869,469,166,4951.706666666667,4710.7,walking
16,1575.26,38173.792,195.381,1882,1077,71,1378.107,99794.069,315.902,1941,674,600,2241.933,17436.742,132.048,2536,2013,303,1927.213,17443.621,132.074,2171,1406,285,1234.4,86375.147,293.896,1878,586,287,1610.02,54753.313,233.994,2012,903,138,5195.3,4771.633333333333,walking
17,1665.5,7587.17,87.104,1817,1430,126,1231.147,135913.618,368.665,1861,479,393,2092.987,11133.12,105.514,2413,1860,18,1913.447,34273.18,185.13,2474,1172,279,1236.707,201568.407,448.964,2113,399,481,1569.54,95359.835,308.804,2105,367,27,4989.633333333333,4719.693333333334,walking
18,1736.333,4076.396,63.847,1854,1551,3,1163.913,142399.052,377.358,1780,606,538,2034.34,5260.931,72.532,2188,1868,107,1921.527,33897.196,184.112,2399,1317,391,1239.133,220915.209,470.016,2113,214,812,1496.06,96760.803,311.064,1936,620,220,4934.586666666667,4656.72,walking
19,1752.08,4442.114,66.649,1872,1516,26,1105.333,115070.742,339.221,1762,526,106,2017.54,5762.035,75.908,2197,1860,164,1912.287,59640.191,244.213,2538,1096,285,1190.233,182659.552,427.387,2053,79,553,1465.06,111883.056,334.489,2001,488,47,4874.953333333333,4567.58,walking
20,1732.427,4263.711,65.297,1858,1516,47,1155.98,108688.78,329.68,1825,572,881,2025.167,4478.312,66.92,2180,1860,169,1903.793,51635.431,227.234,2538,1096,199,1237.087,188931.999,434.663,1941,79,905,1483.993,100671.26,317.287,2091,488,476,4913.573333333334,4624.873333333333,walking
21,1761.393,2194.612,46.847,1849,1618,73,1193.013,86980.36,294.924,1660,607,515,2026.3,2269.65,47.641,2169,1929,89,1885.693,29671.826,172.255,2300,1473,42,1270.76,144367.276,379.957,1891,499,175,1550.773,63376.735,251.747,2110,643,417,4980.706666666667,4707.2266666666665,walking
22,1763.207,4335.671,65.846,1912,1591,50,1197.867,64315.636,253.605,1591,669,243,2049.7,2455.81,49.556,2195,1947,50,1894.32,30388.218,174.322,2316,1460,269,1245.787,103415.328,321.583,1890,568,120,1575.72,49847.255,223.265,2131,893,19,5010.7733333333335,4715.826666666667,walking
23,1718.3,10187.797,100.935,1873,1495,191,1189.28,40296.482,200.74,1549,775,48,2047.813,15774.845,125.598,2287,1712,341,1832.8,24845.987,157.626,2193,1419,483,1233.447,50055.354,223.731,1639,500,375,1562.547,38196.714,195.44,2002,1114,66,4955.393333333333,4628.793333333333,walking
24,1712.353,20879.148,144.496,1961,1484,311,1157.513,16053.836,126.704,1366,919,7,1975.887,28120.66,167.692,2225,1683,198,1814.587,23564.669,153.508,2070,1419,252,1243.247,13394.026,115.733,1513,922,262,1606.213,29252.701,171.034,2066,1255,483,4845.753333333333,4664.046666666667,walking
25,1822.84,1987.201,44.578,1961,1703,8,1181.86,29724.427,172.408,1446,804,176,2097.513,6194.836,78.707,2244,1940,1,1914.093,18660.631,136.604,2362,1517,47,1221.46,45085.168,212.333,1798,681,58,1644.213,58303.781,241.462,2153,787,127,5102.213333333333,4779.766666666666,walking
26,1820.653,3998.573,63.234,1979,1668,48,1204.54,50142.315,223.925,1542,704,633,2118.947,4444.77,66.669,2302,1959,71,1900.7,29393.397,171.445,2448,1487,460,1243.273,76192.852,276.031,1805,564,514,1657.18,63664.654,252.319,2157,761,172,5144.14,4801.153333333334,walking
27,1795.007,4861.82,69.727,1940,1616,5,1202.8,65492.6,255.915,1599,738,233,2094.24,5488.502,74.084,2289,1956,60,1901.647,30040.775,173.323,2548,1508,289,1237.867,109687.422,331.191,1873,489,157,1651.373,77960.874,279.215,2295,646,48,5092.046666666667,4790.886666666666,walking
28,1791.713,4171.951,64.591,1894,1580,46,1206.927,82351.935,286.97,1614,621,118,2106.287,4815.458,69.394,2271,1975,94,1893.353,31280.695,176.863,2325,1485,411,1227.867,144149.969,379.671,1960,365,206,1630.333,83464.489,288.902,2227,619,468,5104.926666666666,4751.553333333333,walking
29,1807.387,4139.624,64.34,1929,1615,10,1234.127,74815.391,273.524,1627,635,38,2125.74,5302.032,72.815,2284,1932,47,1920.927,32623.708,180.62,2427,1438,224,1256.473,116112.009,340.752,1840,395,325,1665.58,95519.044,309.062,2219,478,5,5167.253333333333,4842.98,walking
30,1815.667,4307.649,65.633,1940,1624,283,1191.2,103954.493,322.42,1641,538,447,2112.747,5585.136,74.734,2311,1958,57,1903.22,34490.558,185.716,2445,1318,452,1208.947,142874.93,377.988,1749,270,60,1630.793,76322.271,276.265,2194,582,297,5119.613333333334,4742.96,walking
31,1800.12,3472.359,58.927,1940,1640,150,1156.68,83573.018,289.09,1661,600,632,2085.373,4631.461,68.055,2243,1954,27,1905.273,32294.105,179.706,2591,1428,21,1187.133,113072.049,336.262,1713,344,820,1638.873,67847.511,260.476,2194,882,134,5042.173333333333,4731.28,walking
32,1774.3,4398.743,66.323,1918,1601,68,1132.673,64553.9,254.075,1570,620,795,2068.407,4900.615,70.004,2243,1924,34,1896.1,38635.583,196.559,2591,1428,98,1166.007,90997.687,301.658,1659,418,663,1623.4,86286.28,293.745,2201,627,290,4975.38,4685.506666666667,walking
33,1762.92,5683.354,75.388,1914,1579,9,1128.287,63606.111,252.203,1547,572,681,2069.767,5018.206,70.839,2214,1937,75,1903.427,25994.005,161.227,2269,1475,117,1160.707,99277.394,315.083,1773,336,393,1646.493,85365.877,292.174,2203,627,280,4960.973333333333,4710.626666666667,walking
34,1747.027,5966.533,77.243,1881,1539,63,1146.807,67126.529,259.088,1619,572,433,2081.64,4225.67,65.005,2207,1939,14,1894.3,32902.25,181.39,2314,1468,248,1177.573,89273.645,298.787,1721,336,488,1675.2,68091.587,260.944,2229,922,470,4975.473333333333,4747.073333333334,walking
35,1635.887,11468.687,107.092,1912,1473,164,1164.413,35823.922,189.272,1580,670,17,2039.793,25011.017,158.149,2381,1780,354,1874.013,44971.173,212.064,2337,1402,303,1200.08,48674.394,220.623,1606,489,128,1568.093,55961.218,236.561,2229,938,384,4840.093333333333,4642.1866666666665,walking
36,1642.353,5439.135,73.75,1841,1504,266,1135.053,23561.944,153.499,1632,795,34,1938.08,12439.434,111.532,2170,1747,106,1781.587,26853.856,163.871,2217,1386,92,1233.52,23583.97,153.571,1790,742,61,1519.42,28955.39,170.163,1904,1012,21,4715.486666666667,4534.526666666667,walking
37,1728.86,5716.867,75.61,1868,1521,7,1161.053,93824.21,306.307,1673,370,209,2020.973,10215.386,101.071,2231,1821,121,1897.133,35267.422,187.796,2364,1130,149,1230.2,89404.373,299.006,1790,401,430,1489.647,64807.868,254.574,2035,498,561,4910.886666666666,4616.98,walking
38,1726.573,6172.405,78.565,1942,1577,43,1105.827,132712.73,364.298,1664,370,746,1987.487,4747.836,68.905,2159,1836,59,1893.267,44818.742,211.704,2462,1130,310,1197.127,161560.164,401.945,1851,324,732,1512.933,100880.102,317.616,2170,498,295,4819.886666666666,4603.326666666667,walking
39,1764.147,7110.125,84.322,1989,1546,107,1144.513,86224.823,293.641,1664,578,957,1998.587,4518.536,67.22,2132,1836,7,1899.6,28193.213,167.908,2380,1434,314,1212.027,87956.719,296.575,1688,558,792,1590.6,52883.787,229.965,2138,974,570,4907.246666666667,4702.2266666666665,walking
40,1769.853,10038.165,100.191,1958,1520,123,1166.107,69639.842,263.894,1571,572,595,1975.14,6142.227,78.372,2189,1836,83,1898.087,27833.079,166.832,2425,1314,152,1246.093,93651.711,306.026,1786,308,701,1558.713,41638.924,204.056,2068,1014,309,4911.1,4702.893333333333,walking
41,1781.64,7799.71,88.316,1947,1564,58,1179.267,94008.916,306.609,1736,567,48,1955.413,9309.642,96.486,2193,1776,3,1902.867,21481.142,146.564,2251,1496,0,1281.113,124441.474,352.763,1786,495,432,1516.5,60495.557,245.958,1961,607,298,4916.32,4700.48,walking
42,1787.733,4734.569,68.808,1949,1629,188,1184.293,88591.554,297.643,1562,594,99,1937.86,4707.987,68.615,2069,1776,111,1890.433,28684.966,169.366,2390,1364,201,1277.767,126565.766,355.761,1823,69,220,1543.4,43039.013,207.458,2022,846,35,4909.886666666666,4711.6,walking
43,1745.84,4149.534,64.417,1908,1613,8,1183.587,74465.576,272.884,1612,718,367,1979.72,3187.202,56.455,2146,1881,10,1902.107,29035.749,170.399,2396,1438,82,1277.933,95899.556,309.677,1827,644,52,1512.68,58385.044,241.63,2059,674,59,4909.1466666666665,4692.72,walking
44,1740.727,6101.919,78.115,1912,1596,13,1180.393,73690.052,271.459,1626,663,408,2009.313,4118.495,64.176,2183,1895,87,1905.673,34643.98,186.129,2393,1307,600,1258.887,118489.06,344.222,1827,533,384,1551.807,64534.263,254.036,2249,799,371,4930.433333333333,4716.366666666667,walking
45,1702.833,5158.766,71.825,1823,1474,94,1184.373,67625.834,260.05,1612,659,312,2012.893,3027.962,55.027,2158,1895,111,1908.593,27033.908,164.42,2362,1491,111,1255.847,144384.356,379.979,1886,217,292,1535.447,83294.767,288.608,2137,529,16,4900.1,4699.886666666666,walking
46,1727.027,3101.133,55.688,1894,1633,95,1168.28,60454.948,245.876,1580,741,278,1996.44,3755.006,61.278,2138,1907,40,1899.827,32135.597,179.264,2362,1457,84,1235.533,109833.942,331.412,1825,611,355,1569.06,60903.576,246.786,2246,985,14,4891.746666666667,4704.42,walking
47,1648.04,3235.678,56.883,1766,1476,225,1169.227,20630.149,143.632,1437,869,12,1954.847,6277.063,79.228,2127,1796,225,1833.433,25129.179,158.522,2194,1457,2,1236.387,34107.344,184.682,1786,731,221,1565.42,25444.63,159.514,2037,1148,170,4772.113333333334,4635.24,walking
48,1641.46,11661.302,107.988,1878,1476,131,1185.513,15607.276,124.929,1462,941,128,1990.987,17556.746,132.502,2255,1796,307,1833.947,19644.344,140.158,2122,1482,90,1211.2,12025.84,109.662,1412,708,304,1582.54,29928.955,173.0,2065,1052,290,4817.96,4627.6866666666665,walking
49,1652.62,10279.796,101.389,1845,1455,198,1231.3,36697.637,191.566,1505,836,407,2105.713,5288.044,72.719,2255,1975,20,1899.667,21031.289,145.022,2404,1463,149,1210.067,57061.409,238.875,1746,695,189,1658.8,55065.707,234.661,2203,955,311,4989.633333333333,4768.533333333334,walking
50,1731.067,3441.982,58.668,1844,1610,42,1195.98,69471.193,263.574,1653,750,471,2066.7,5602.623,74.851,2235,1902,174,1914.867,36464.809,190.958,2555,1336,324,1230.267,112486.062,335.389,1852,465,412,1644.467,88352.849,297.242,2248,531,189,4993.746666666667,4789.6,walking
51,1724.773,5135.162,71.66,1886,1585,149,1214.46,70452.582,265.429,1653,687,546,2103.16,4158.108,64.483,2235,1981,37,1907.827,40343.637,200.857,2627,1232,161,1221.893,120319.242,346.871,1803,354,923,1666.48,99790.663,315.897,2235,556,858,5042.393333333333,4796.2,walking
52,1734.107,5206.669,72.157,1919,1545,207,1207.72,75587.628,274.932,1651,723,660,2098.827,4717.53,68.684,2226,1960,43,1909.933,41190.422,202.954,2678,1390,308,1211.793,100212.497,316.564,1741,495,771,1635.273,97651.879,312.493,2235,644,802,5040.653333333334,4757.0,walking
53,1709.06,7752.776,88.05,1902,1491,258,1193.287,74474.751,272.901,1653,581,516,2111.24,6113.142,78.187,2311,1975,10,1891.18,42552.654,206.283,2492,1229,660,1197.687,112398.375,335.259,1968,351,70,1636.44,84180.593,290.139,2246,644,368,5013.586666666667,4725.306666666666,walking
54,1715.227,8297.162,91.089,1918,1463,136,1174.727,73253.972,270.655,1661,581,741,2128.827,5770.597,75.964,2311,1973,72,1893.92,41113.26,202.764,2384,1229,241,1179.287,104634.578,323.473,1748,351,393,1666.247,90111.239,300.185,2246,561,121,5018.78,4739.453333333333,walking
55,1726.707,7106.247,84.299,1905,1484,54,1149.1,72713.783,269.655,1603,574,761,2104.26,5774.859,75.992,2264,1959,28,1895.407,39443.401,198.604,2448,1405,135,1160.667,103562.862,321.812,1776,452,675,1640.12,87879.092,296.444,2198,561,443,4980.066666666667,4696.193333333334,walking
56,1736.813,7871.138,88.719,1936,1484,143,1125.36,76807.91,277.142,1593,610,19,2084.687,5748.015,75.816,2246,1948,190,1891.133,34460.756,185.636,2438,1488,267,1167.88,122708.492,350.298,1815,326,608,1646.167,77818.086,278.959,2251,717,15,4946.86,4705.18,walking
57,1736.713,7523.111,86.736,1918,1493,50,1136.313,72686.748,269.605,1609,663,221,2088.873,5175.031,71.938,2246,1956,167,1885.8,39045.867,197.6,2438,1300,46,1189.2,126460.867,355.613,1912,362,947,1635.007,81685.433,285.807,2251,567,449,4961.9,4710.006666666667,walking
58,1754.507,8681.93,93.177,1979,1493,245,1099.387,104812.77,323.748,1562,183,294,2015.76,16579.529,128.762,2219,1683,110,1902.087,59270.186,243.455,2820,1161,492,1181.233,142636.699,377.673,1912,19,247,1563.1,114919.103,338.997,2127,553,599,4869.653333333334,4646.42,walking
59,1483.087,65242.532,255.426,1979,882,368,1294.54,143413.502,378.7,1957,183,14,2190.227,44824.949,211.719,2531,1683,394,1878.8,66119.173,257.136,2820,1161,30,1154.507,108165.61,328.885,1652,19,163,1475.24,66079.342,257.059,1928,553,477,4967.8533333333335,4508.546666666667,walking
60,1596.253,43805.869,209.299,1994,882,652,1290.907,51009.725,225.853,1755,879,286,2292.193,11560.796,107.521,2494,2087,67,1908.827,39075.81,197.676,2442,1404,201,1185.453,94027.114,306.638,1731,442,418,1486.693,77264.146,277.964,2029,699,490,5179.3533333333335,4580.973333333333,walking
61,1736.247,9412.372,97.017,1994,1514,230,1177.047,62551.778,250.104,1610,704,301,2179.253,17672.016,132.936,2494,1953,107,1921.8,29291.987,171.149,2442,1482,116,1178.293,92836.874,304.691,1662,376,20,1537.273,78818.879,280.747,2142,728,155,5092.546666666667,4637.366666666667,walking
62,1715.04,3983.105,63.112,1895,1577,132,1183.593,66234.628,257.361,1580,588,768,2101.54,9274.608,96.305,2366,1968,150,1892.327,38764.793,196.888,2365,1361,110,1192.487,102264.316,319.788,1784,376,847,1556.113,82147.82,286.614,2142,576,692,5000.173333333333,4640.926666666666,walking
63,1730.08,4253.754,65.221,1895,1537,131,1196.2,57211.813,239.19,1538,740,449,2049.32,2190.551,46.803,2165,1948,134,1913.387,30284.184,174.024,2387,1472,27,1227.207,62028.217,249.055,1707,598,499,1577.133,51647.702,227.261,2079,1026,169,4975.6,4717.7266666666665,walking
64,1710.86,10942.654,104.607,1872,1477,109,1194.96,51276.425,226.443,1531,671,59,2041.02,5704.26,75.527,2171,1840,7,1918.68,29396.444,171.454,2498,1517,78,1249.26,68997.112,262.673,1998,604,210,1461.913,52213.012,228.502,1963,855,75,4946.84,4629.8533333333335,walking
65,1708.527,3622.503,60.187,1887,1570,122,1183.413,45673.282,213.713,1496,721,277,2067.813,3169.565,56.299,2239,1968,47,1919.713,36761.218,191.732,2498,1476,108,1222.867,73937.222,271.914,1688,546,632,1564.533,50221.716,224.102,2051,848,556,4959.753333333333,4707.113333333334,walking
66,1690.2,4700.453,68.56,1828,1501,89,1158.68,58732.978,242.349,1563,668,368,2041.133,5215.796,72.22,2194,1885,25,1890.4,34811.267,186.578,2445,1476,133,1203.92,89309.847,298.848,1856,563,301,1587.627,69539.581,263.704,2237,789,126,4890.013333333333,4681.946666666667,walking
67,1654.42,7096.057,84.238,1828,1436,134,1155.713,49634.404,222.788,1552,668,253,2015.773,7080.802,84.148,2194,1825,46,1831.34,29658.958,172.218,2163,1300,378,1195.82,89984.708,299.975,2007,531,61,1578.373,69133.421,262.932,2007,789,577,4825.906666666667,4605.533333333334,walking
68,1696.56,6352.286,79.701,1826,1494,38,1139.567,59507.939,243.942,1560,584,800,2038.327,3580.247,59.835,2217,1939,28,1860.233,34354.566,185.35,2215,1300,226,1192.78,67114.705,259.065,1647,544,258,1566.427,76588.671,276.747,2090,840,576,4874.453333333333,4619.44,walking
69,1698.227,3876.269,62.26,1870,1507,44,1138.133,54365.996,233.165,1547,584,177,2051.453,4511.514,67.168,2240,1930,41,1869.893,34330.815,185.286,2216,1380,262,1184.347,78213.88,279.667,1871,559,371,1600.407,88646.588,297.736,2187,728,313,4887.8133333333335,4654.6466666666665,walking
70,1705.287,3931.631,62.703,1847,1522,122,1162.86,52113.36,228.284,1518,741,47,2076.327,4639.833,68.116,2267,1968,128,1870.9,33008.703,181.683,2281,1380,364,1194.4,89715.293,299.525,1813,522,51,1658.113,87781.847,296.28,2292,728,290,4944.473333333333,4723.413333333333,walking
71,1738.493,2511.303,50.113,1840,1604,5,1163.273,40137.252,200.343,1538,848,375,2070.913,3907.426,62.509,2203,1934,166,1867.7,20866.837,144.454,2161,1481,141,1194.38,76392.089,276.391,1783,636,209,1639.387,73340.77,270.815,2200,903,630,4972.68,4701.466666666666,walking
72,1758.573,3779.991,61.482,1869,1546,27,1171.713,49890.378,223.362,1538,712,259,2085.82,5274.814,72.628,2237,1965,168,1877.66,30268.758,173.979,2388,1455,401,1191.687,90531.922,300.885,1880,555,199,1621.1,65081.49,255.111,2195,635,371,5016.106666666667,4690.446666666667,walking
73,1753.2,3746.013,61.205,1874,1565,20,1171.833,64551.712,254.07,1588,630,267,2061.38,4950.529,70.36,2235,1950,54,1882.513,30480.476,174.587,2450,1455,331,1196.107,101712.775,318.924,1785,473,11,1637.12,66728.159,258.318,2158,693,71,4986.413333333333,4715.74,walking
74,1751.853,4648.378,68.179,1895,1586,90,1145.18,83363.734,288.728,1611,600,825,2068.86,4293.894,65.528,2213,1932,223,1901.373,45003.821,212.141,2657,1552,114,1160.833,114960.379,339.058,1820,336,569,1612.02,77637.406,278.635,2162,644,112,4965.893333333333,4674.2266666666665,walking
75,1730.5,8124.677,90.137,1975,1528,32,1151.74,111123.112,333.351,1712,388,89,2076.347,7162.786,84.633,2246,1867,87,1900.28,93461.375,305.715,3215,932,158,1177.513,193795.49,440.222,2069,22,523,1605.96,105752.745,325.196,2245,368,162,4958.586666666667,4683.753333333333,walking
76,1768.967,4440.392,66.636,1883,1604,46,1162.773,88245.829,297.062,1654,553,844,2047.407,4403.081,66.356,2194,1894,30,1896.76,49968.102,223.535,2437,1330,272,1216.1,154130.343,392.594,1926,183,489,1586.36,85713.124,292.768,2133,546,213,4979.1466666666665,4699.22,walking
77,1738.127,4768.777,69.056,1883,1568,84,1173.073,76761.615,277.059,1654,585,400,2034.347,3372.24,58.071,2183,1927,42,1883.973,35135.679,187.445,2294,1305,213,1222.367,111965.579,334.613,1740,386,159,1628.093,62641.925,250.284,2188,621,169,4945.546666666667,4734.433333333333,walking
78,1706.747,6118.029,78.218,1854,1491,47,1162.393,37665.212,194.075,1495,708,0,2026.26,4823.446,69.451,2204,1843,16,1840.527,56372.449,237.429,2550,916,155,1216.353,86522.895,294.148,1740,22,36,1638.913,42866.959,207.043,2033,735,118,4895.4,4695.793333333333,walking
79,1702.32,7774.564,88.173,1849,1421,40,1173.487,58944.783,242.785,1598,672,72,2058.5,7948.743,89.156,2253,1890,32,1881.993,46556.313,215.769,2351,1294,115,1206.933,83285.009,288.591,1883,589,461,1568.8,70265.053,265.076,2184,779,156,4934.306666666666,4657.7266666666665,walking
80,1715.387,4674.664,68.372,1901,1556,4,1193.973,68988.079,262.656,1617,460,441,2060.513,4054.13,63.672,2230,1943,146,1889.113,48406.954,220.016,2352,1294,551,1230.153,94594.036,307.561,1782,133,244,1494.207,71105.871,266.657,2091,779,312,4969.873333333333,4613.473333333333,walking
81,1745.14,3980.68,63.093,1888,1578,123,1202.647,55130.308,234.798,1668,707,871,2070.347,4349.453,65.95,2223,1951,78,1890.387,48436.97,220.084,2446,1413,185,1248.707,78897.167,280.886,1791,595,499,1523.973,74899.346,273.677,2113,777,428,5018.133333333333,4663.066666666667,walking
82,1746.72,2778.175,52.708,1872,1632,2,1185.773,97481.909,312.221,1683,423,646,2051.867,7162.196,84.63,2284,1892,69,1908.987,37689.2,194.137,2357,1424,56,1255.607,123546.519,351.492,2011,447,174,1486.413,77828.456,278.978,1998,571,269,4984.36,4651.006666666667,walking
83,1748.367,3591.406,59.928,1914,1618,84,1187.893,70838.429,266.155,1549,492,220,2030.073,2398.041,48.97,2143,1916,30,1916.947,44395.437,210.702,2539,1368,178,1259.0,91757.253,302.915,1883,659,353,1536.087,65009.972,254.971,2106,740,356,4966.333333333333,4712.033333333334,walking
84,1736.767,3848.272,62.034,1931,1585,76,1188.227,63436.615,251.866,1549,556,118,2013.093,1729.711,41.59,2128,1928,67,1917.6,28246.333,168.066,2300,1501,21,1250.373,82737.954,287.642,1792,690,63,1577.407,50498.321,224.718,2158,961,362,4938.086666666667,4745.38,walking
85,1718.707,4899.994,70.0,1993,1525,12,1191.393,83567.399,289.08,1607,464,72,2014.4,3114.267,55.806,2174,1915,16,1904.013,41837.68,204.543,2430,1207,25,1246.967,91814.792,303.01,1797,413,209,1552.56,53965.66,232.305,2127,811,410,4924.5,4703.54,walking
86,1707.56,3168.953,56.293,1853,1520,31,1197.333,60350.102,245.663,1596,615,58,2022.333,2707.302,52.032,2167,1924,71,1896.32,44678.271,211.372,2489,1375,184,1253.507,81286.197,285.107,1891,717,94,1574.713,63927.991,252.84,2116,707,368,4927.2266666666665,4724.54,walking
87,1681.793,2937.964,54.203,1782,1557,64,1199.747,56893.456,238.523,1542,616,45,2004.767,4828.352,69.486,2165,1887,95,1860.093,23748.685,154.106,2220,1504,244,1254.307,93510.973,305.796,1910,560,342,1579.307,48532.626,220.301,1947,630,502,4886.306666666666,4693.706666666667,walking
88,1721.507,3826.93,61.862,1851,1509,44,1200.067,64069.876,253.12,1601,650,97,2032.673,3415.98,58.446,2192,1940,150,1903.427,37703.458,194.174,2446,1365,45,1237.547,110299.274,332.113,1949,418,81,1635.3,66314.05,257.515,2253,730,849,4954.246666666667,4776.2733333333335,walking
89,1709.473,3291.209,57.369,1822,1600,152,1204.513,68848.543,262.39,1601,664,208,2054.593,3872.401,62.229,2199,1933,40,1890.733,32558.742,180.44,2347,1327,563,1235.967,110960.832,333.108,1991,560,780,1686.907,67465.325,259.741,2329,821,1,4968.58,4813.606666666667,walking
90,1677.64,7346.87,85.714,1814,1424,242,1188.773,49763.535,223.077,1552,797,575,2063.98,9015.126,94.948,2293,1903,222,1869.433,32683.699,180.786,2197,1442,223,1205.187,106952.458,327.036,2037,485,979,1648.12,76121.866,275.902,2329,582,447,4930.393333333333,4722.74,walking
91,1646.027,14411.999,120.05,1901,1354,366,1247.107,54768.562,234.027,1687,798,485,2163.66,12040.158,109.728,2431,1966,380,1882.833,38414.472,195.996,2280,1341,154,1203.94,104033.443,322.542,1833,146,1219,1675.34,93715.384,306.13,2406,368,396,5056.793333333333,4762.113333333334,walking
92,1663.933,13499.329,116.187,1901,1388,335,1243.5,55049.543,234.626,1687,832,547,2176.073,6549.508,80.929,2431,2047,57,1888.76,58087.902,241.014,2748,1257,203,1208.293,126650.927,355.88,1947,146,64,1696.24,100914.089,317.67,2406,368,75,5083.506666666667,4793.293333333333,walking
93,1721.96,5760.532,75.898,1910,1508,56,1182.627,40750.327,201.867,1542,790,358,2113.607,3693.372,60.773,2243,1960,176,1884.227,25001.335,158.118,2236,1432,50,1188.507,102187.903,319.668,1858,418,74,1655.853,62748.432,250.496,2133,891,287,5018.193333333334,4728.586666666667,walking
94,1768.7,4468.21,66.845,1910,1605,127,1170.72,47403.948,217.724,1623,791,425,2077.127,3910.524,62.534,2229,1960,14,1889.147,44794.898,211.648,2678,1391,443,1194.753,89302.092,298.835,1858,435,119,1662.113,78675.54,280.492,2253,856,705,5016.546666666667,4746.013333333333,walking
95,1739.92,6281.834,79.258,1936,1570,162,1165.393,75954.065,275.598,1676,601,656,2089.847,3376.09,58.104,2212,1946,47,1901.193,55455.036,235.489,2656,1392,402,1178.153,112748.276,335.78,1871,299,497,1622.1,113994.61,337.631,2253,376,118,4995.16,4701.446666666667,walking
96,1706.967,7891.646,88.835,1892,1456,155,1168.667,94856.436,307.988,1764,587,804,2074.353,5803.055,76.178,2212,1899,27,1891.967,54397.046,233.232,2400,1324,347,1189.593,147302.175,383.8,1790,221,612,1606.147,86479.618,294.074,2250,553,189,4949.986666666667,4687.706666666667,walking
97,1705.993,7309.767,85.497,1892,1456,175,1141.407,86285.428,293.744,1710,587,653,2085.2,5384.8,73.381,2230,1939,100,1890.727,55604.572,235.806,2620,1348,236,1152.533,164154.129,405.159,2000,183,91,1605.667,98354.116,313.615,2250,571,55,4932.6,4648.926666666666,walking
98,1707.2,7263.307,85.225,1939,1485,258,1130.933,85697.302,292.741,1627,574,278,2074.813,4447.658,66.691,2230,1908,125,1895.407,63740.748,252.469,2813,1281,47,1185.167,176658.286,420.307,2095,183,1077,1635.64,92998.297,304.956,2179,571,187,4912.946666666667,4716.213333333333,walking
99,1681.653,7123.066,84.398,1939,1485,119,1154.68,104889.524,323.867,1615,427,472,2058.1,5589.703,74.764,2210,1908,203,1864.2,54556.253,233.573,2813,1308,81,1216.933,178497.062,422.489,2095,233,486,1604.567,72906.152,270.011,2230,864,225,4894.433333333333,4685.7,walking
0,1622.42,8962.71,94.672,1843,1347,139,1159.313,18942.282,137.631,1503,614,89,1991.64,10885.124,104.332,2189,1783,156,1865.88,26423.932,162.554,2232,1370,274,1225.28,57825.788,240.47,1947,458,433,1575.093,40121.005,200.302,2149,924,277,4773.373333333333,4666.253333333333,running
1,1603.68,14301.338,119.588,1776,1332,89,1145.687,20379.335,142.756,1422,614,60,1904.227,24885.309,157.751,2106,1569,10,1908.88,56531.466,237.763,2549,1322,7,1208.693,44856.186,211.793,1947,458,145,1529.373,41557.274,203.856,2052,924,112,4653.593333333333,4646.946666666667,running
2,1557.367,17528.432,132.395,1762,1352,14,1185.02,15361.006,123.94,1439,923,128,1988.187,4203.058,64.831,2125,1849,27,1789.727,39658.572,199.145,2196,1317,244,1253.407,30016.028,173.251,1608,655,174,1573.553,62292.554,249.585,1930,795,67,4730.573333333334,4616.6866666666665,running
3,1670.167,16390.512,128.025,1952,1423,137,1267.187,104299.365,322.954,1944,646,434,2107.66,22036.371,148.447,2387,1790,240,1945.073,41745.615,204.317,2404,1322,195,1267.12,128085.706,357.891,1954,288,30,1499.707,75517.407,274.804,2025,709,428,5045.013333333333,4711.9,running
4,1667.82,20095.388,141.758,1940,1377,260,1260.927,176693.948,420.35,1944,556,660,2117.087,27415.852,165.577,2490,1790,84,1932.28,46379.282,215.358,2704,1214,53,1241.413,225944.082,475.336,2167,203,486,1538.127,122743.897,350.348,2096,364,1208,5045.833333333333,4711.82,running
5,1621.94,27807.496,166.756,1925,1096,194,1212.487,425979.09,652.671,2647,18,467,2210.047,68191.751,261.136,2846,1795,8,1917.987,59240.44,243.394,2499,1181,278,1197.593,479915.455,692.759,2554,21,1066,1442.313,113326.375,336.64,2174,364,61,5044.473333333333,4557.893333333333,running
6,1627.933,91041.476,301.731,2184,1096,126,1188.767,750255.406,866.173,2647,18,783,2055.127,92068.071,303.427,2788,1524,324,1898.167,104548.606,323.34,2706,888,248,1292.32,856841.884,925.658,2772,20,965,1414.473,123437.929,351.337,2198,478,433,4871.826666666667,4604.96,running
7,1417.42,359032.844,599.193,2670,21,574,1343.433,909421.646,953.636,3026,12,220,1981.587,32101.882,179.17,2383,1680,91,1927.56,123313.086,351.16,2523,888,80,1312.68,887225.938,941.927,2802,18,699,1364.027,172935.239,415.855,2053,295,302,4742.44,4604.266666666666,running
8,1225.647,883270.868,939.825,3028,20,92,1359.653,1044927.746,1022.217,3301,12,703,1847.9,64663.023,254.289,2387,1241,73,1938.28,116276.682,340.994,2868,1083,651,1374.66,905926.731,951.802,2788,19,8,1215.227,243205.762,493.159,2359,13,684,4433.2,4528.166666666667,running
9,1069.98,702909.58,838.397,2690,21,527,1577.913,929113.506,963.905,3301,12,197,2009.013,78975.666,281.026,2418,1348,112,1901.793,126735.124,355.999,2804,997,385,1308.44,837806.926,915.318,2758,19,26,1370.86,149127.6,386.17,2209,135,163,4656.906666666667,4581.093333333333,running
10,1174.38,863570.076,929.285,3027,21,666,1645.233,677260.086,822.958,3057,12,222,1937.473,58591.503,242.057,2388,1443,129,1913.453,115898.421,340.439,2769,997,397,1273.32,869259.884,932.341,2668,20,734,1429.247,112957.879,336.092,2209,206,73,4757.086666666667,4616.02,running
11,1144.887,763160.727,873.591,2673,21,1794,1786.233,577118.072,759.683,3057,13,820,2060.687,135413.962,367.986,3081,1519,256,1898.793,121137.671,348.048,2781,894,208,1316.72,884240.762,940.341,2633,18,854,1401.807,149173.156,386.229,2377,206,1031,4991.806666666666,4617.32,running
12,1149.427,547542.965,739.961,2426,25,1292,1880.053,329545.77,574.061,2975,964,703,2301.227,298505.189,546.356,3454,1519,749,1896.173,115570.69,339.957,2781,848,39,1300.313,846716.935,920.172,2761,19,1928,1446.493,102045.117,319.445,2036,599,171,5330.706666666667,4642.98,running
13,1177.66,644235.878,802.643,2465,23,485,1940.687,310831.962,557.523,2864,575,172,2184.133,198802.342,445.873,3206,1560,820,1923.527,87646.343,296.051,2585,1067,340,1360.087,821719.012,906.487,2960,19,1275,1469.233,129912.032,360.433,2238,411,54,5302.48,4752.846666666666,running
14,1167.787,596483.341,772.323,2465,22,659,1990.807,260039.223,509.94,3125,746,895,2153.413,82311.522,286.9,2660,1596,36,1886.187,105727.965,325.158,2474,908,812,1323.72,773188.962,879.312,2960,20,685,1514.407,109635.601,331.113,2145,253,54,5312.006666666667,4724.3133333333335,running
15,1099.113,524496.1,724.221,2190,23,1809,1893.7,250521.97,500.522,2830,746,207,2186.12,141869.692,376.656,3207,1666,795,1913.647,74341.708,272.657,2771,1094,259,1282.98,628789.9,792.963,2720,21,2296,1523.227,93647.709,306.019,2143,253,700,5178.933333333333,4719.8533333333335,running
16,1086.313,572174.188,756.422,2190,23,1581,1794.52,234326.036,484.072,2767,746,965,2185.753,133628.359,365.552,2831,1602,766,1899.64,100555.27,317.105,2771,1078,2,1193.447,686307.314,828.437,2629,20,1818,1492.107,72714.189,269.656,2026,556,329,5066.586666666667,4585.193333333334,running
17,1018.227,673717.749,820.803,2496,22,1264,1774.233,609532.859,780.726,3155,12,138,2103.3,93035.623,305.017,2757,1595,546,1863.747,124540.216,352.903,2603,759,492,1232.947,821380.757,906.301,2785,19,501,1354.373,121202.994,348.142,2158,388,909,4895.76,4451.066666666667,running
18,1094.02,706191.246,840.352,2442,22,375,1607.1,442135.743,664.933,2862,127,293,2139.913,118799.199,344.673,2864,1595,0,1892.167,153001.566,391.154,2884,876,570,1298.54,934602.542,966.748,2629,19,1460,1349.82,165047.241,406.26,2033,145,320,4841.033333333334,4540.526666666667,running
19,1069.06,624267.203,790.106,2450,22,611,1810.473,469407.583,685.133,3028,341,285,2145.18,114418.188,338.258,2864,1583,20,1863.78,112476.772,335.376,2798,937,316,1273.073,856720.908,925.592,2628,19,927,1442.593,111853.041,334.444,1979,482,217,5024.713333333333,4579.446666666667,running
20,1032.093,707404.205,841.073,2575,20,672,1787.353,483075.948,695.037,3121,127,708,2122.74,133733.699,365.696,3075,1680,217,1838.88,205780.279,453.63,3149,585,839,1265.413,870605.616,933.062,2825,19,2395,1434.26,186627.112,432.004,2298,20,76,4942.1866666666665,4538.553333333333,running
21,1004.293,712888.567,844.327,2575,21,1488,1771.02,571258.766,755.817,3109,127,32,2153.413,113882.216,337.464,2980,1561,109,1911.027,119441.799,345.604,3017,1040,146,1359.533,925552.969,962.057,2858,20,2514,1332.627,197815.834,444.765,2426,41,212,4928.7266666666665,4603.1866666666665,running
22,1059.353,715927.042,846.125,2508,21,1486,1843.733,505774.409,711.178,3152,295,958,2049.353,76579.268,276.73,2801,1679,20,1875.26,222312.792,471.501,3714,21,225,1380.367,916358.432,957.266,2716,20,2524,1406.72,179340.082,423.486,2426,41,298,4952.44,4662.346666666666,running
23,1062.8,669970.293,818.517,2454,21,350,1862.667,693261.356,832.623,3723,295,54,1950.913,60291.146,245.543,2420,1513,19,1911.227,251775.295,501.772,3714,21,1077,1344.013,856823.906,925.648,2919,17,1059,1440.473,232084.009,481.751,2740,82,361,4876.38,4695.713333333333,running
24,1083.193,791564.489,889.699,2647,20,165,1693.727,855632.825,925.004,3723,12,899,1935.687,53304.508,230.878,2420,1491,108,1910.793,216636.591,465.442,3217,785,802,1402.42,929367.47,964.037,3001,17,285,1406.707,332407.981,576.548,2776,52,1084,4712.606666666667,4719.92,running
25,1052.527,674994.876,821.581,2571,20,317,1849.4,629031.347,793.115,3439,421,36,2014.753,77756.679,278.849,2650,1618,63,1896.927,210202.441,458.478,3217,590,903,1383.68,924077.084,961.289,2917,18,733,1439.5,268945.117,518.599,2605,52,180,4916.68,4720.106666666667,running
26,1109.887,660553.207,812.744,2531,22,230,1858.413,337501.962,580.949,2990,704,100,2167.94,118252.936,343.879,2945,1533,1,1911.48,210187.596,458.462,3136,590,493,1332.4,888701.68,942.71,2917,18,585,1468.987,249304.066,499.304,2799,205,78,5136.24,4712.866666666667,running
27,1000.8,537846.907,733.38,2140,21,755,1911.46,436912.328,660.993,3192,636,305,2163.933,87237.596,295.36,2784,1749,243,1843.92,233208.5,482.917,3396,480,322,1279.613,811591.05,900.883,2857,19,678,1473.733,235329.569,485.108,2664,127,564,5076.193333333334,4597.266666666666,running
28,1037.0,625855.893,791.111,2478,21,1399,1768.947,397555.664,630.52,3355,648,245,2215.667,81091.356,284.765,2888,1747,339,1855.533,273663.489,523.129,3500,128,463,1329.707,951684.541,975.543,2894,18,1543,1375.6,258614.693,508.542,2979,17,688,5021.613333333334,4560.84,running
29,1084.787,648080.754,805.035,2451,21,1310,1667.433,603152.872,776.629,3188,76,156,2093.733,125111.569,353.711,2888,1510,890,1934.127,203155.604,450.728,3500,859,2,1388.473,910212.663,954.051,2766,19,605,1273.24,201247.836,448.607,2979,17,1825,4845.953333333333,4595.84,running
30,1162.027,680120.119,824.694,2505,21,1102,1836.56,476942.726,690.61,3168,123,2524,1915.22,50969.585,225.764,2447,1534,114,1883.453,132862.301,364.503,2738,635,675,1382.607,906983.319,952.357,2766,19,1656,1374.293,154676.634,393.29,2126,337,1265,4913.806666666666,4640.3533333333335,running
31,1129.307,666428.759,816.351,2347,21,1366,1939.82,457974.854,676.738,3261,374,86,1914.427,40816.151,202.03,2358,1532,31,1903.88,103218.959,321.277,2543,1020,238,1438.66,847103.531,920.382,2663,20,1320,1400.993,181246.607,425.731,2294,190,524,4983.553333333333,4743.533333333334,running
32,1088.807,620645.023,787.81,2317,21,2,1870.84,537887.561,733.408,3377,582,1222,2050.74,129053.406,359.24,3144,1600,412,1911.467,135156.582,367.636,2682,786,604,1460.493,845515.623,919.519,2676,17,2043,1352.5,177937.89,421.827,2168,159,190,5010.386666666666,4724.46,running
33,1115.067,606576.916,778.83,2408,21,224,1960.867,421083.409,648.909,3195,633,901,2020.7,92285.863,303.786,3079,1601,835,1906.147,103242.752,321.314,2891,1006,141,1385.84,851882.748,922.975,2733,20,717,1383.78,139460.238,373.444,2031,354,253,5096.633333333333,4675.766666666666,running
34,1152.8,659535.213,812.118,2504,20,711,1886.48,485286.863,696.625,3093,482,36,1945.1,38608.277,196.49,2401,1491,208,1912.947,101996.53,319.369,2891,960,50,1424.867,879754.316,937.952,2776,19,335,1338.62,190506.276,436.47,2206,192,71,4984.38,4676.433333333333,running
35,1131.187,602749.365,776.369,2492,20,1004,1927.233,368901.352,607.372,3019,647,396,2022.093,48918.058,221.174,2527,1578,461,1896.973,138314.999,371.907,2780,779,687,1399.3,894609.477,945.838,2795,17,127,1409.04,156873.105,396.072,2206,274,909,5080.513333333333,4705.3133333333335,running
36,995.153,514096.223,717.005,2200,20,288,1932.573,340789.391,583.772,3167,1028,109,2162.28,34614.588,186.05,2599,1810,140,1887.553,203415.087,451.016,3345,707,85,1293.86,876922.414,936.441,2725,18,660,1403.707,191634.607,437.761,2418,283,322,5090.006666666667,4585.12,running
37,979.08,525925.327,725.207,2153,21,97,2023.147,333868.925,577.814,3436,1284,149,2124.953,29918.351,172.969,2688,1810,87,1912.147,135488.018,368.087,2804,1023,52,1312.033,887732.432,942.196,2755,20,230,1392.033,167483.939,409.248,2418,283,210,5127.18,4616.213333333333,running
38,972.18,546685.228,739.382,2337,21,1047,2055.267,298284.676,546.154,2968,1164,68,2136.1,34909.41,186.841,2483,1812,26,1932.093,171552.911,414.189,2817,344,243,1335.993,856235.087,925.33,2755,16,1603,1405.4,156798.667,395.978,2362,436,669,5163.546666666667,4673.486666666667,running
39,1050.96,551638.585,742.724,2267,21,1353,1927.953,450221.938,670.986,3389,699,445,2132.98,28813.086,169.744,2587,1847,12,1915.213,250779.968,500.779,3437,165,1126,1407.587,890940.896,943.897,2946,14,1778,1447.753,280880.519,529.982,2753,38,579,5111.893333333333,4770.553333333333,running
40,1072.42,572304.804,756.508,2445,21,310,1853.7,358040.85,598.365,2929,715,192,2120.68,65431.591,255.796,2926,1737,215,1924.067,247696.302,497.691,3342,165,1163,1407.587,991522.589,995.752,2989,14,794,1432.893,250026.322,500.026,2557,88,593,5046.8,4764.546666666667,running
41,1058.8,674173.773,821.081,2520,20,1,1934.567,369908.872,608.201,3023,786,638,1953.373,43249.567,207.965,2491,1575,10,1945.793,200400.897,447.662,2923,317,2015,1348.44,944733.526,971.974,2757,15,13,1408.66,247390.344,497.383,2573,318,965,4946.74,4702.893333333333,running
42,1050.88,599652.732,774.372,2354,20,381,1995.5,489841.023,699.886,3323,786,141,2007.233,55487.259,235.557,2543,1632,46,1889.993,232273.86,481.948,3338,456,220,1313.167,903596.126,950.577,3157,17,27,1429.653,225936.426,475.328,2651,97,472,5053.613333333334,4632.8133333333335,running
43,1082.067,657685.689,810.978,2518,19,476,1891.92,511225.607,715.0,3323,441,459,1947.52,31249.81,176.776,2352,1427,59,1866.86,349838.054,591.471,3745,14,372,1374.467,910585.169,954.246,2811,13,110,1375.713,293168.418,541.45,2834,16,540,4921.506666666667,4617.04,running
44,984.22,596137.745,772.1,2275,18,875,1733.447,516874.607,718.94,2924,159,79,1981.653,37154.28,192.754,2420,1391,201,1880.993,222963.94,472.191,3745,14,283,1279.94,869110.363,932.261,2885,13,852,1296.84,241419.508,491.345,2834,16,302,4699.32,4457.7733333333335,running
45,1038.173,736229.663,858.038,2494,20,305,1756.833,400013.139,632.466,3195,602,619,2056.0,67160.44,259.153,2552,1521,169,1901.467,138125.236,371.652,3032,881,319,1368.46,903593.142,950.575,2822,18,2357,1306.807,189695.249,435.54,2227,65,170,4851.006666666667,4576.733333333334,running
46,1062.42,745006.204,863.137,2474,20,258,1881.787,433685.528,658.548,3054,675,247,1924.54,70007.222,264.589,2552,1397,33,1904.107,150992.762,388.578,3032,600,805,1420.653,882823.386,939.587,2822,18,284,1302.06,202549.87,450.055,2256,65,340,4868.746666666667,4626.82,running
47,1039.18,757681.174,870.449,2387,20,624,1861.087,469761.559,685.392,3146,672,208,1864.613,45523.344,213.362,2316,1383,102,1899.667,130679.796,361.497,2776,690,362,1451.893,877675.215,936.843,2883,17,145,1279.607,289901.292,538.425,2308,13,353,4764.88,4631.166666666667,running
48,1043.567,715158.326,845.67,2438,19,648,1949.047,483379.924,695.255,3219,760,453,1856.12,32757.332,180.99,2257,1438,118,1900.987,105001.6,324.04,2823,1080,70,1393.8,947566.587,973.43,2799,19,204,1318.427,192697.538,438.973,2340,204,496,4848.733333333334,4613.213333333333,running
49,1116.6,738835.387,859.555,2571,18,1,1922.34,485264.584,696.609,3254,735,875,1734.76,23912.249,154.636,2104,1411,143,1923.84,134928.828,367.327,2901,631,879,1481.84,886863.548,941.734,2822,19,5,1285.073,246669.081,496.658,2414,31,525,4773.7,4690.753333333333,running
50,1118.22,732825.958,856.053,2487,19,308,1940.807,489575.329,699.697,3254,735,560,1733.96,26133.478,161.659,1985,1274,162,1914.5,112378.17,335.229,3088,1026,378,1450.953,968157.431,983.95,2913,18,1211,1308.54,206506.755,454.43,2308,31,990,4792.986666666667,4673.993333333333,running
51,1094.013,749577.146,865.781,2525,18,1364,1927.0,460418.907,678.542,3258,688,81,1792.7,31604.637,177.777,2099,1275,91,1920.513,122173.316,349.533,2920,969,755,1426.993,905628.873,951.645,2673,19,1570,1398.627,212289.181,460.749,2682,94,277,4813.713333333333,4746.133333333333,running
52,1041.307,606624.359,778.861,2209,16,1518,2058.953,356873.751,597.389,3471,803,1559,1765.987,95132.733,308.436,2292,752,150,1863.213,157317.714,396.633,3102,420,364,1398.373,896547.234,946.862,2783,16,938,1361.3,264291.637,514.093,2660,20,362,4866.246666666667,4622.886666666666,running
53,1007.42,610204.377,781.156,2248,18,1505,2025.593,337115.788,580.617,3112,1150,15,1889.373,57854.634,240.53,2301,1225,14,1864.34,120407.691,346.998,2835,1178,387,1413.407,892819.788,944.891,2621,20,1829,1274.507,219587.477,468.602,2333,16,287,4922.386666666666,4552.253333333333,running
54,1085.267,800584.129,894.754,2954,19,220,2068.333,353252.689,594.351,3111,940,348,1902.24,51171.769,226.212,2611,1462,283,1928.313,178503.322,422.497,2966,697,112,1363.08,878960.634,937.529,2799,17,187,1376.52,226902.023,476.342,2773,22,141,5055.84,4667.913333333333,running
55,1058.827,720127.917,848.604,2435,19,22,2082.173,482724.783,694.784,3822,940,156,1736.153,37197.823,192.867,2332,1340,169,1892.787,212591.848,461.077,3359,351,533,1426.327,902616.74,950.061,3204,17,983,1416.193,390711.636,625.069,3119,21,411,4877.153333333334,4735.306666666666,running
56,1044.127,637638.844,798.523,2213,17,108,2022.847,468320.41,684.339,3363,887,203,1791.64,65772.644,256.462,2193,1071,131,1901.673,200284.553,447.532,3238,703,551,1461.047,1009475.818,1004.727,3204,20,563,1422.88,387488.919,622.486,3119,22,654,4858.613333333334,4785.6,running
57,1083.413,839721.549,916.363,2554,18,2,2042.027,341225.946,584.145,3226,1153,457,1798.013,39456.133,198.636,2267,1220,551,1916.233,262079.646,511.937,3329,24,44,1346.873,959694.537,979.64,2925,13,577,1394.907,277243.138,526.539,2930,371,785,4923.453333333333,4658.013333333333,running
58,1126.56,787644.74,887.494,2540,18,55,2003.36,403636.63,635.324,3225,930,192,1776.6,33681.813,183.526,2110,1122,25,1912.9,199264.357,446.39,3329,277,386,1421.6,949134.827,974.236,2895,15,341,1365.693,212155.759,460.604,2812,330,27,4906.52,4700.193333333334,running
59,1131.047,755059.871,868.942,2608,18,231,1989.313,450658.335,671.311,3215,996,115,1805.613,27432.37,165.627,2260,1223,7,1907.407,317392.455,563.376,3812,21,123,1479.453,998311.421,999.155,3075,13,169,1362.947,349332.41,591.043,2812,238,301,4925.973333333333,4749.806666666666,running
60,1164.867,805203.422,897.331,2824,19,148,1977.713,382793.178,618.703,3216,736,475,1817.393,20572.185,143.43,2239,1490,156,1888.913,335842.212,579.519,3818,288,903,1468.107,1023092.895,1011.481,3447,15,221,1395.327,298888.207,546.707,2561,238,1089,4959.973333333333,4752.346666666666,running
61,1162.387,691349.397,831.474,2689,19,48,1951.613,390543.544,624.935,3045,177,1481,1905.207,37191.431,192.851,2358,1523,167,1865.78,397977.292,630.854,3827,22,996,1488.453,945508.141,972.372,3345,15,481,1410.133,323363.462,568.651,2943,20,1990,5019.206666666667,4764.366666666667,running
62,1084.127,622665.031,789.091,2356,16,1934,1934.267,307234.236,554.287,2864,950,493,1764.267,111899.342,334.514,2358,922,217,1880.253,291905.736,540.283,3613,133,1828,1386.72,937354.175,968.171,2965,17,40,1325.26,248343.886,498.341,2622,21,20,4782.66,4592.233333333334,running
63,1141.32,726148.364,852.143,2423,16,2095,1585.767,524973.166,724.55,3045,12,1916,1708.4,62176.28,249.352,2173,922,528,1934.04,173970.412,417.098,2956,636,998,1424.173,903408.49,950.478,2650,17,2203,1218.707,262592.661,512.438,2126,13,20,4435.486666666667,4576.92,running
64,1061.26,738023.219,859.083,2561,18,1258,1897.313,498308.028,705.909,3227,486,265,1771.673,43889.087,209.497,2173,982,387,1918.48,111024.69,333.204,2678,910,581,1420.307,921327.866,959.858,2900,18,224,1185.473,277325.116,526.617,2295,13,78,4730.246666666667,4524.26,running
65,1077.153,817759.276,904.3,2561,18,479,1795.353,576369.322,759.19,3373,335,653,1763.66,46607.398,215.887,2274,982,31,1900.513,107520.636,327.903,2773,1030,297,1372.62,995691.076,997.843,3024,18,587,1269.22,184766.398,429.845,2172,97,782,4636.166666666667,4542.3533333333335,running
66,1078.347,745485.346,863.415,2517,19,2327,1852.407,561815.175,749.543,3373,426,7,1856.613,32909.13,181.409,2137,1452,7,1899.047,162590.338,403.225,2860,723,82,1444.213,943190.248,971.18,3024,18,379,1307.273,249381.332,499.381,2433,14,1326,4787.366666666667,4650.533333333334,running
67,1137.053,834711.104,913.625,2744,19,411,1844.993,497194.3,705.12,3207,616,1017,1842.813,44555.072,211.081,2234,1390,166,1897.533,102798.742,320.622,2888,733,45,1477.047,911937.484,954.954,2985,19,463,1327.793,242262.177,492.201,2307,13,917,4824.86,4702.373333333333,running
68,1128.72,698077.268,835.51,2508,18,1,1978.867,456971.049,675.996,3207,833,46,1840.26,51742.192,227.469,2249,1277,140,1898.54,131111.968,362.094,2835,898,299,1471.193,912775.823,955.393,2955,17,1892,1344.527,219309.023,468.304,2466,122,108,4947.846666666666,4714.26,running
69,1199.553,760347.1,871.979,2508,20,373,1913.2,458483.773,677.114,3178,643,1532,1781.3,24299.29,155.882,2241,917,223,1923.367,211751.992,460.165,3422,493,23,1515.707,873870.901,934.811,2955,18,770,1337.673,275136.14,524.534,2575,14,1179,4894.053333333333,4776.746666666667,running
70,1139.813,650992.992,806.841,2602,18,1214,1971.827,393683.277,627.442,3178,792,300,1812.187,48451.232,220.116,2382,1263,472,1857.147,292495.498,540.829,4064,23,273,1487.513,932370.836,965.594,2911,16,1150,1374.313,240307.828,490.212,2575,14,1056,4923.826666666667,4718.973333333333,running
71,1105.807,615728.756,784.684,2311,18,1498,1839.713,398692.471,631.421,3037,797,1198,1868.14,80619.147,283.935,2382,1127,705,1893.593,192401.348,438.636,3448,669,795,1420.507,958942.303,979.256,2911,17,1744,1343.313,239858.255,489.753,2408,18,351,4813.66,4657.413333333333,running
72,1139.073,766059.428,875.248,2452,19,1216,1924.74,453361.472,673.321,3201,721,552,1852.753,37615.812,193.948,2373,934,136,1927.107,122300.655,349.715,2724,1050,840,1416.127,914058.137,956.064,2900,19,1812,1379.9,195831.183,442.528,2255,46,1622,4916.566666666667,4723.133333333333,running
73,1115.433,677908.806,823.352,2499,18,3,1913.993,520134.593,721.204,3296,721,1471,1852.007,50936.313,225.691,2345,934,473,1897.553,201794.127,449.215,3512,782,955,1494.527,962772.516,981.21,3026,18,1318,1358.293,281085.154,530.175,2702,14,159,4881.433333333333,4750.373333333333,running
74,1134.0,712489.08,844.091,2672,20,1,1934.34,503000.531,709.225,3341,405,129,1947.18,30548.308,174.781,2336,1565,95,1907.24,286351.436,535.118,3469,396,1122,1492.673,965402.633,982.549,3158,15,2305,1375.16,329641.041,574.144,3099,280,1801,5015.52,4775.073333333334,running
75,1141.94,824041.523,907.767,2672,18,631,2001.92,449024.58,670.093,3468,1047,260,1914.4,66659.893,258.186,2636,1427,7,1910.92,171290.86,413.873,2979,720,173,1445.68,1004058.924,1002.027,3222,18,413,1359.347,306654.88,553.764,3276,21,343,5058.26,4715.946666666667,running
76,1149.247,801611.986,895.328,2484,18,338,1970.487,509960.903,714.115,3468,939,488,1840.813,38351.498,195.835,2226,1113,16,1881.92,273454.927,522.929,3670,655,96,1471.16,1001474.214,1000.737,3276,16,112,1380.433,270932.406,520.512,2696,60,431,4960.546666666667,4733.513333333333,running
77,1081.14,717947.854,847.318,2381,17,188,1961.08,577139.887,759.697,3553,827,149,1852.807,40430.049,201.072,2192,1076,156,1861.633,269108.059,518.756,3720,576,72,1474.193,984292.863,992.115,3127,19,21,1402.14,358345.267,598.619,3119,67,130,4895.026666666667,4737.966666666666,running
78,1159.147,758969.338,871.188,2381,17,1260,1949.92,303229.287,550.663,3158,1173,263,1845.407,44485.308,210.915,2224,1076,292,1929.713,253536.084,503.524,4060,503,488,1428.413,1020844.322,1010.368,3194,18,135,1422.267,292265.769,540.616,2542,392,505,4954.473333333333,4780.393333333333,running
79,1134.693,713486.466,844.681,2386,19,1,1981.867,355318.116,596.086,3261,917,584,1944.487,45786.876,213.979,2551,1588,34,2011.16,448686.574,669.841,4076,18,792,1419.04,970417.945,985.098,3194,13,4,1358.82,341470.841,584.355,3169,15,640,5061.046666666667,4789.02,running
80,1033.907,401721.071,633.815,2091,20,753,1909.74,223429.739,472.684,3023,523,383,2003.78,52830.092,229.848,2771,1595,556,1947.393,239194.092,489.075,3360,17,107,1266.167,582354.099,763.121,2453,13,419,1344.2,239340.56,489.224,2281,14,527,4947.426666666666,4557.76,running
81,895.447,496527.834,704.647,2208,20,360,2041.46,313499.435,559.91,3176,901,269,1879.92,101389.887,318.418,2771,1185,32,1894.527,167612.916,409.406,2667,165,380,1316.207,875123.177,935.48,2772,14,543,1221.72,242443.948,492.386,2455,13,142,4816.826666666667,4432.453333333333,running
82,1042.153,757338.516,870.252,2645,18,415,1796.88,567223.919,753.143,3176,410,557,1776.513,42162.143,205.334,2405,1169,69,1935.12,126778.306,356.059,3009,1135,308,1412.027,930875.333,964.819,2874,19,675,1245.513,216379.143,465.166,2455,20,308,4615.546666666667,4592.66,running
83,1022.913,717804.866,847.234,2483,18,251,1834.72,575566.775,758.661,3304,445,176,1713.66,51584.104,227.121,2176,1002,55,1897.98,155143.3,393.882,2864,650,892,1450.887,958814.834,979.191,3087,16,202,1290.847,274543.956,523.969,2524,14,329,4571.293333333333,4639.713333333333,running
84,1052.72,742158.042,861.486,2396,15,532,1856.827,512539.943,715.919,3270,445,78,1659.167,64135.406,253.25,2071,775,212,1890.247,170006.199,412.318,2825,559,471,1441.247,943251.052,971.211,2894,17,99,1256.813,201369.578,448.742,1976,16,498,4568.713333333333,4588.306666666666,running
85,1090.44,735454.713,857.587,2411,17,4,1930.267,491152.276,700.823,3270,659,213,1824.693,63089.039,251.175,2377,996,624,1886.86,155983.694,394.948,2915,785,830,1456.633,897408.792,947.317,3015,17,3,1314.78,200251.558,447.495,2511,101,280,4845.4,4658.2733333333335,running
86,1077.4,857096.8,925.795,2526,18,315,1870.54,795132.755,891.702,3652,13,923,1778.64,66184.377,257.263,2377,982,430,1898.373,174840.034,418.139,2835,411,1134,1473.267,947965.436,973.635,2879,16,692,1272.78,267742.478,517.438,2397,13,1420,4726.58,4644.42,running
87,1173.793,887391.924,942.015,2836,14,1222,1739.407,1118479.228,1057.582,3716,12,1030,1563.9,104639.77,323.481,2079,107,197,1896.78,225703.878,475.083,3043,411,1050,1549.893,909046.895,953.44,2950,16,629,1290.287,358172.044,598.475,2520,13,144,4477.1,4736.96,running
88,1059.213,893881.994,945.453,2863,18,2388,1619.887,1356075.02,1164.506,3876,12,366,1688.207,30122.017,173.557,2059,1072,79,1941.287,170383.258,412.775,3010,1125,553,1462.16,988091.534,994.028,2884,20,1339,1320.427,242567.405,492.511,2675,82,1168,4367.306666666666,4723.873333333333,running
89,1097.92,728182.127,853.336,2494,16,1401,1799.813,820205.165,905.652,3555,49,2103,1663.527,64020.623,253.023,2049,843,171,1866.233,296372.859,544.401,3643,24,17,1506.607,982470.585,991.197,2927,19,2420,1287.487,260106.143,510.006,2675,14,797,4561.26,4660.326666666667,running
90,1075.233,677077.632,822.847,2459,15,1793,1873.44,645315.273,803.315,3401,458,430,1753.76,138790.276,372.546,2240,582,751,1892.707,281577.141,530.638,3332,21,101,1469.447,948133.807,973.722,2744,18,2087,1296.767,208913.699,457.071,2423,14,1411,4702.433333333333,4658.92,running
91,1134.953,790082.191,888.866,2680,15,831,1845.833,653800.339,808.579,3361,655,854,1704.92,76095.14,275.853,2185,645,303,1933.547,166029.434,407.467,3433,1101,570,1459.033,947073.446,973.177,2886,19,262,1307.08,194262.234,440.752,2176,183,393,4685.706666666667,4699.66,running
92,1169.573,822057.765,906.674,2709,19,1559,1885.747,664096.509,814.921,3357,446,750,1780.853,22766.032,150.884,2316,1436,33,1897.133,314410.729,560.723,4064,507,1361,1506.833,1088084.632,1043.113,3358,15,538,1322.333,296139.542,544.187,2484,22,1081,4836.173333333333,4726.3,running
93,1154.68,789370.404,888.465,2448,17,1061,1863.54,648709.088,805.425,3415,446,668,1703.54,32116.035,179.209,2078,1096,95,1922.46,313761.942,560.145,3602,507,1042,1486.593,1046559.201,1023.015,3358,15,282,1367.153,336937.223,580.463,2766,13,194,4721.76,4776.206666666667,running
94,1138.613,773375.637,879.418,2560,19,1095,1877.393,719450.505,848.204,3667,383,305,1734.54,28743.488,169.539,2041,1132,59,1924.02,335899.566,579.568,3602,449,1395,1455.727,1111654.785,1054.35,3416,16,2720,1355.367,361953.592,601.626,2962,13,567,4750.546666666667,4735.113333333334,running
95,1156.54,822845.275,907.108,2504,18,758,1847.233,752110.819,867.243,3667,252,297,1785.46,51241.288,226.365,2418,1132,290,1884.72,303899.682,551.271,3884,305,588,1481.167,1075762.286,1037.19,3458,16,1040,1299.673,458241.593,676.935,3526,14,583,4789.233333333334,4665.56,running
96,1126.973,738882.626,859.583,2483,18,110,1769.813,792196.845,890.054,3669,251,41,1817.633,45791.126,213.989,2353,1297,179,1895.46,340690.715,583.687,3674,300,504,1395.667,1047498.289,1023.474,3227,15,718,1343.973,298870.159,546.69,2798,15,23,4714.42,4635.1,running
97,1136.22,728836.212,853.719,2524,15,541,1783.48,504412.543,710.22,3070,264,177,1729.113,85413.66,292.256,2268,581,247,1937.627,427099.981,653.529,4068,16,453,1412.873,1045669.137,1022.58,3329,13,826,1365.98,402732.366,634.612,2861,13,157,4648.8133333333335,4716.48,running
98,1066.74,636299.619,797.684,2376,18,130,1941.453,530610.381,728.43,3230,449,308,1781.273,48593.065,220.438,2478,1193,79,1891.213,291728.314,540.119,3238,146,350,1400.393,984386.012,992.162,3069,17,675,1368.567,278710.019,527.93,2891,136,141,4789.466666666666,4660.173333333333,running
99,1073.86,663260.307,814.408,2352,16,636,1860.467,470287.942,685.775,3305,401,354,1779.16,72595.481,269.435,2166,685,297,1834.02,374621.66,612.063,3812,145,613,1303.38,928878.449,963.783,2920,17,415,1417.313,261603.868,511.472,2432,56,453,4713.486666666667,4554.713333333333,running
0,1647.767,32654.152,180.705,2046,1122,296,1940.573,30728.911,175.297,2540,1641,20,2686.007,9567.74,97.815,2930,2419,101,1984.12,518.812,22.777,2043,1924,7,1205.573,175.498,13.248,1238,1164,12,1711.393,296.705,17.225,1763,1668,3,6274.346666666666,4901.086666666667,running
1,1799.647,741.442,27.229,1876,1736,43,1916.313,520.815,22.821,2001,1865,71,2725.66,270.691,16.453,2770,2680,3,1979.7,189.717,13.774,2020,1920,2,1205.447,115.5,10.747,1237,1165,7,1715.927,138.388,11.764,1760,1688,33,6441.62,4901.073333333334,running
2,1787.56,753.126,27.443,1853,1714,28,1899.84,168.401,12.977,1939,1869,11,2718.533,278.289,16.682,2758,2660,20,1983.027,171.159,13.083,2016,1948,17,1206.407,119.001,10.909,1240,1177,5,1715.82,140.094,11.836,1755,1687,1,6405.933333333333,4905.253333333333,running
3,1590.573,122527.845,350.04,1991,228,1103,1944.353,41137.748,202.824,2505,1489,129,2543.187,94445.685,307.32,2847,1488,1218,1977.0,675.653,25.993,2023,1892,59,1205.16,256.174,16.005,1246,1156,21,1713.707,347.554,18.643,1754,1660,38,6078.113333333334,4895.866666666667,running
4,974.167,53515.112,231.333,1622,182,202,2200.053,49848.397,223.268,2521,1373,10,1648.14,108364.734,329.188,2821,1074,458,1901.54,7162.888,84.634,2280,1743,38,1206.64,3163.817,56.248,1361,994,43,1668.14,5132.294,71.64,1825,1505,58,4822.36,4776.32,running
5,1084.44,16715.926,129.29,1436,815,48,2339.227,62451.215,249.902,2612,1572,891,1958.133,29646.689,172.182,2337,1699,345,1932.06,4376.43,66.155,2128,1791,124,1201.247,2335.519,48.327,1325,994,29,1692.98,2264.34,47.585,1825,1571,47,5381.8,4826.286666666667,running
6,1321.807,90037.223,300.062,2005,711,257,1383.78,98639.078,314.069,2200,754,1030,1753.707,143579.314,378.919,2337,1080,1110,1888.533,5714.089,75.592,2032,1697,132,1191.053,6032.784,77.671,1367,914,313,1631.167,10984.766,104.808,1781,1109,176,4459.293333333333,4710.753333333333,running
7,1330.973,427189.453,653.597,2931,28,612,1141.12,273087.519,522.578,2265,12,1184,1957.833,390745.832,625.097,3504,997,1202,2017.5,87195.397,295.289,2843,726,106,1202.467,250254.542,500.254,2578,24,587,1432.9,120235.783,346.75,2624,22,7,4429.926666666666,4652.866666666667,running
8,1105.42,665770.03,815.947,2734,23,333,1399.54,862706.662,928.82,2968,12,334,2337.147,514265.445,717.123,3602,924,12,1975.54,134444.208,366.666,4058,1042,558,1375.313,791592.308,889.715,2900,19,120,1361.3,413828.53,643.295,4059,16,413,4842.106666666667,4712.153333333334,running
9,1193.473,712968.249,844.374,2589,23,97,1437.013,914927.306,956.518,3096,12,337,2280.28,628088.655,792.52,4006,901,2,1914.36,158195.83,397.738,3886,830,291,1428.127,981646.564,990.781,3229,19,1083,1389.193,486848.503,697.745,4048,13,349,4910.766666666666,4731.68,running
10,1270.4,420142.52,648.184,2244,25,167,1525.44,902767.153,950.141,3023,12,416,2557.1,595129.703,771.447,4021,1019,258,1906.54,228062.648,477.559,4035,565,328,1527.647,1285209.268,1133.671,3566,18,1041,1396.9,707189.237,840.945,4066,13,414,5352.94,4831.086666666667,running
11,2070.6,181397.467,425.908,2810,31,1979,1941.507,310092.797,556.86,2981,14,2681,2607.86,278480.12,527.712,4014,1592,1515,1919.22,203012.518,450.569,3961,589,879,1507.567,1065905.846,1032.427,3492,18,1360,1476.82,563342.734,750.562,4056,13,9,6619.966666666666,4903.606666666667,running
12,2093.12,67252.506,259.331,2810,1534,649,2151.707,126649.501,355.878,3117,1120,694,2638.72,233233.188,482.942,3532,1636,1358,1842.52,170182.89,412.532,3359,99,397,1355.02,642503.913,801.563,2953,15,117,1487.807,263503.236,513.326,2488,18,309,6883.546666666667,4685.346666666666,running
13,1311.187,314629.858,560.919,2329,20,318,1413.18,518881.894,720.335,2719,13,649,2387.507,463898.357,681.101,3532,846,1285,1868.44,107991.446,328.621,2643,1177,594,1378.873,649075.951,805.653,2985,20,688,1386.047,328591.884,573.229,4056,14,1590,5111.873333333333,4633.36,running
14,1032.807,290300.756,538.796,1985,20,658,1728.32,60098.924,245.151,2199,1178,41,1623.84,128276.734,358.157,2446,802,524,1943.16,63388.321,251.77,2672,1272,132,1251.04,395399.705,628.808,2482,23,473,1741.08,265324.127,515.096,2814,212,1624,4384.966666666666,4935.28,running
15,1056.573,410449.445,640.663,2202,19,791,1644.38,401512.969,633.651,3090,12,821,1883.453,385241.541,620.678,3588,518,2289,1956.247,107245.492,327.484,3050,931,1065,1364.593,508742.695,713.262,2485,20,675,1651.353,418822.308,647.165,4058,13,758,4584.406666666667,4972.193333333334,running
16,1158.327,714637.847,845.363,2957,27,400,1261.513,999144.583,999.572,3168,12,74,2288.113,817489.407,904.151,4002,530,130,1940.08,186883.46,432.3,3784,588,104,1348.247,745001.746,863.135,2591,18,163,1338.6,398314.173,631.121,3474,14,1079,4707.953333333333,4626.926666666666,running
17,1201.353,675590.668,821.943,2570,26,79,1324.5,953831.677,976.643,3118,12,272,2243.487,593463.37,770.366,3755,935,182,1979.14,204739.32,452.481,3784,326,6,1379.247,872073.199,933.849,2896,17,149,1296.547,454448.528,674.128,4060,13,158,4769.34,4654.933333333333,running
18,1200.64,640282.324,800.176,2756,25,126,1305.733,897530.969,947.381,3047,12,176,2295.573,628253.058,792.624,3755,928,35,1970.42,179251.484,423.381,3269,326,131,1404.513,866990.063,931.123,2892,17,384,1286.2,466643.227,683.113,4056,13,286,4801.946666666667,4661.133333333333,running
19,1198.6,620788.293,787.901,2556,27,169,1351.54,862376.782,928.642,3030,12,200,2366.673,642611.233,801.63,3922,894,378,1952.773,153961.855,392.38,3754,834,400,1416.473,876114.129,936.01,2892,19,126,1293.96,506154.185,711.445,4060,13,868,4916.8133333333335,4663.206666666667,running
20,1209.7,668936.583,817.885,2696,27,0,1332.02,905655.793,951.659,3129,12,280,2389.347,675823.813,822.085,4015,998,151,1970.847,180985.85,425.424,3873,454,986,1399.56,833194.86,912.795,2949,17,298,1296.32,428185.884,654.359,4053,13,955,4931.066666666667,4666.7266666666665,running
21,1255.947,705393.41,839.877,2741,26,766,1386.853,895896.658,946.518,3050,12,822,2350.513,660525.93,812.727,4015,952,653,1961.06,206420.856,454.336,3505,212,1053,1409.0,886501.013,941.542,2949,16,63,1306.72,444166.348,666.458,3129,13,514,4993.3133333333335,4676.78,running
22,1171.107,694954.095,833.639,2587,22,1603,1524.193,903777.836,950.672,3262,12,972,2432.72,527092.588,726.011,3893,1085,880,1890.187,269777.832,519.401,3505,476,1025,1477.807,797180.276,892.85,2664,17,1429,1302.693,479794.413,692.672,4059,13,341,5128.02,4670.6866666666665,running
23,1158.333,706371.289,840.459,2523,25,1029,1240.853,873912.872,934.833,2937,12,2095,2391.26,622349.539,788.891,3828,1022,1023,1868.553,145338.354,381.233,3089,656,624,1437.093,777596.191,881.814,2705,16,1146,1264.027,454676.239,674.297,3509,13,341,4790.446666666667,4569.673333333333,running
24,1175.013,724082.026,850.93,2738,26,603,1265.68,1077281.404,1037.922,3295,12,144,2420.08,766253.727,875.359,4014,948,477,1939.3,305149.85,552.404,4057,168,90,1455.933,927275.129,962.951,3223,14,1669,1283.733,583653.276,763.972,3884,13,0,4860.7733333333335,4678.966666666666,running
25,1218.34,736222.611,858.034,2668,26,410,1266.647,934790.562,966.846,3088,12,372,2370.64,777223.777,881.603,4014,842,164,1947.247,261969.506,511.83,3720,85,261,1459.613,1037410.837,1018.534,3223,15,1688,1267.913,551635.986,742.722,3855,13,149,4855.626666666667,4674.7733333333335,running
26,1209.687,601545.575,775.594,2466,27,48,1404.033,944149.286,971.673,3080,12,387,2428.027,710403.946,842.855,4016,967,228,1949.553,350560.767,592.082,3950,18,117,1504.247,1180787.146,1086.64,3464,13,1023,1258.34,640200.571,800.125,4040,13,368,5041.746666666667,4712.14,running
27,1223.813,722818.205,850.187,2728,26,486,1367.58,1062919.937,1030.98,3178,12,255,2411.373,848135.914,920.943,4016,862,334,1906.553,347361.794,589.374,4059,18,183,1481.507,1062857.57,1030.95,3110,13,510,1303.707,566901.301,752.928,4058,13,450,5002.766666666666,4691.766666666666,running
28,1233.553,744180.434,862.659,3148,25,609,1398.107,1045403.682,1022.45,3294,12,5,2417.673,764405.873,874.303,4016,612,593,1903.84,353581.961,594.628,4055,14,1277,1493.78,1059636.025,1029.386,3053,13,1656,1334.66,625679.824,790.999,4059,13,1454,5049.333333333333,4732.28,running
29,1240.967,761179.579,872.456,3148,25,895,1321.093,986445.418,993.2,3164,12,484,2368.98,735687.86,857.722,4013,612,653,1927.313,329069.388,573.646,4064,13,534,1460.46,1037340.048,1018.499,3014,13,980,1294.993,577333.007,759.824,3809,13,592,4931.04,4682.766666666666,running
30,1262.767,733537.872,856.468,2924,26,379,1342.087,992126.986,996.056,3164,12,855,2376.7,861117.463,927.964,4017,643,230,1925.76,431830.342,657.138,4064,13,1634,1536.627,1146078.647,1070.551,3293,13,2571,1269.767,571547.766,756.008,3809,13,81,4981.553333333333,4732.153333333334,running
31,1290.427,567943.791,753.62,2924,15,1389,1366.06,715466.176,845.852,2916,12,304,1854.847,660238.13,812.55,4011,320,70,1860.333,246657.102,496.646,3184,248,69,1535.767,1114573.459,1055.734,3765,15,1660,1210.12,461405.799,679.269,3149,13,392,4511.333333333333,4606.22,running
32,1261.447,404232.34,635.793,2524,18,710,1368.9,463041.757,680.472,2660,17,1010,1790.213,370542.221,608.722,3471,501,638,1851.0,216423.973,465.214,3625,330,343,1300.713,665165.591,815.577,2942,15,2288,1293.153,259138.423,509.056,3023,19,825,4420.56,4444.866666666667,running
33,1213.507,452954.783,673.019,2557,27,361,1254.493,824821.89,908.197,3201,12,61,2399.227,560562.295,748.707,3532,977,299,1925.167,138636.646,372.339,2908,935,287,1332.54,710750.728,843.06,2726,20,540,1254.913,225001.666,474.343,2845,15,243,4867.2266666666665,4512.62,running
34,1211.98,640247.9,800.155,2754,27,278,1308.8,883917.267,940.169,2935,12,82,2307.82,529473.388,727.649,3654,1049,82,1925.1,221626.957,470.773,4058,622,232,1380.98,827559.246,909.703,2913,19,56,1292.187,364968.498,604.126,4059,18,47,4828.6,4598.266666666666,running
35,1194.66,722664.744,850.097,2784,26,1706,1243.893,951397.615,975.396,3004,12,292,2297.547,556153.461,745.757,3574,938,846,1939.133,231574.609,481.222,4058,622,24,1378.547,881865.394,939.077,2913,19,1759,1271.087,472578.026,687.443,4059,21,314,4736.1,4588.766666666666,running
